"","Subject","RunType","Run","Trial","StimID","Type","Question","Onset","Resp","RT"
"1","tb9226","NoQuestions",1,1,21,"bio","job",1.013,"NoResp",0
"2","tb9226","NoQuestions",1,2,8,"bio","place",16.028,"NoResp",0
"3","tb9226","NoQuestions",1,3,38,"phys","race",34.044,"NoResp",0
"4","tb9226","NoQuestions",1,4,42,"phys","gender",50.048,"NoResp",0
"5","tb9226","NoQuestions",1,5,16,"bio","place",67.072,"NoResp",0
"6","tb9226","NoQuestions",1,6,68,"phys","ec",81.083,"NoResp",0
"7","tb9226","NoQuestions",1,7,67,"phys","ec",96.094,"NoResp",0
"8","tb9226","NoQuestions",1,8,4,"bio","name",111.108,"NoResp",0
"9","tb9226","NoQuestions",1,9,2,"bio","job",127.129,"NoResp",0
"10","tb9226","NoQuestions",1,10,70,"phys","ec",143.139,"NoResp",0
"11","tb9226","NoQuestions",1,11,30,"bio","name",160.16,"NoResp",0
"12","tb9226","NoQuestions",1,12,31,"bio","name",178.176,"NoResp",0
"13","tb9226","NoQuestions",1,13,26,"bio","job",196.193,"NoResp",0
"14","tb9226","NoQuestions",1,14,52,"phys","gender",210.207,"NoResp",0
"15","tb9226","NoQuestions",1,15,72,"phys","race",227.228,"NoResp",0
"16","tb9226","NoQuestions",1,16,22,"bio","place",244.245,"NoResp",0
"17","tb9226","NoQuestions",1,17,46,"phys","race",259.259,"NoResp",0
"18","tb9226","NoQuestions",1,18,40,"phys","gender",275.28,"NoResp",0
"19","tb9226","NoQuestions",2,1,18,"bio","job",1.016,"NoResp",0
"20","tb9226","NoQuestions",2,2,65,"phys","race",17.026,"NoResp",0
"21","tb9226","NoQuestions",2,3,44,"phys","gender",31.041,"NoResp",0
"22","tb9226","NoQuestions",2,4,12,"bio","place",45.053,"NoResp",0
"23","tb9226","NoQuestions",2,5,39,"phys","race",60.063,"NoResp",0
"24","tb9226","NoQuestions",2,6,25,"bio","name",76.087,"NoResp",0
"25","tb9226","NoQuestions",2,7,57,"phys","race",93.111,"NoResp",0
"26","tb9226","NoQuestions",2,8,7,"bio","place",111.127,"NoResp",0
"27","tb9226","NoQuestions",2,9,1,"bio","name",128.148,"NoResp",0
"28","tb9226","NoQuestions",2,10,35,"bio","place",144.168,"NoResp",0
"29","tb9226","NoQuestions",2,11,66,"phys","ec",160.179,"NoResp",0
"30","tb9226","NoQuestions",2,12,36,"bio","job",177.196,"NoResp",0
"31","tb9226","NoQuestions",2,13,60,"phys","ec",191.214,"NoResp",0
"32","tb9226","NoQuestions",2,14,11,"bio","name",206.224,"NoResp",0
"33","tb9226","NoQuestions",2,15,41,"phys","ec",224.238,"NoResp",0
"34","tb9226","NoQuestions",2,16,37,"phys","gender",242.254,"NoResp",0
"35","tb9226","NoQuestions",2,17,64,"phys","gender",257.265,"NoResp",0
"36","tb9226","NoQuestions",2,18,20,"bio","job",274.286,"NoResp",0
"37","tb9226","NoQuestions",3,1,69,"phys","gender",1.017,"NoResp",0
"38","tb9226","NoQuestions",3,2,43,"phys","ec",17.024,"NoResp",0
"39","tb9226","NoQuestions",3,3,3,"bio","name",31.042,"NoResp",0
"40","tb9226","NoQuestions",3,4,50,"phys","ec",49.058,"NoResp",0
"41","tb9226","NoQuestions",3,5,13,"bio","job",64.066,"NoResp",0
"42","tb9226","NoQuestions",3,6,6,"bio","place",79.081,"NoResp",0
"43","tb9226","NoQuestions",3,7,58,"phys","gender",93.095,"NoResp",0
"44","tb9226","NoQuestions",3,8,27,"bio","place",108.103,"NoResp",0
"45","tb9226","NoQuestions",3,9,15,"bio","job",125.126,"NoResp",0
"46","tb9226","NoQuestions",3,10,32,"bio","name",142.147,"NoResp",0
"47","tb9226","NoQuestions",3,11,5,"bio","place",160.163,"NoResp",0
"48","tb9226","NoQuestions",3,12,49,"phys","ec",174.178,"NoResp",0
"49","tb9226","NoQuestions",3,13,53,"phys","gender",189.186,"NoResp",0
"50","tb9226","NoQuestions",3,14,28,"bio","job",206.209,"NoResp",0
"51","tb9226","NoQuestions",3,15,54,"phys","race",222.23,"NoResp",0
"52","tb9226","NoQuestions",3,16,19,"bio","name",240.25,"NoResp",0
"53","tb9226","NoQuestions",3,17,51,"phys","race",257.267,"NoResp",0
"54","tb9226","NoQuestions",3,18,61,"phys","race",273.277,"NoResp",0
"55","tb9226","NoQuestions",4,1,56,"phys","race",1.029,"NoResp",0
"56","tb9226","NoQuestions",4,2,59,"phys","race",19.046,"NoResp",0
"57","tb9226","NoQuestions",4,3,10,"bio","name",36.066,"NoResp",0
"58","tb9226","NoQuestions",4,4,17,"bio","place",54.082,"NoResp",0
"59","tb9226","NoQuestions",4,5,29,"bio","job",71.103,"NoResp",0
"60","tb9226","NoQuestions",4,6,55,"phys","gender",86.114,"NoResp",0
"61","tb9226","NoQuestions",4,7,24,"bio","job",101.128,"NoResp",0
"62","tb9226","NoQuestions",4,8,33,"bio","job",118.145,"NoResp",0
"63","tb9226","NoQuestions",4,9,48,"phys","ec",133.159,"NoResp",0
"64","tb9226","NoQuestions",4,10,34,"bio","place",149.18,"NoResp",0
"65","tb9226","NoQuestions",4,11,62,"phys","gender",166.2,"NoResp",0
"66","tb9226","NoQuestions",4,12,23,"bio","place",182.21,"NoResp",0
"67","tb9226","NoQuestions",4,13,47,"phys","ec",196.225,"NoResp",0
"68","tb9226","NoQuestions",4,14,71,"phys","race",210.237,"NoResp",0
"69","tb9226","NoQuestions",4,15,63,"phys","gender",225.248,"NoResp",0
"70","tb9226","NoQuestions",4,16,45,"phys","ec",239.266,"NoResp",0
"71","tb9226","NoQuestions",4,17,14,"bio","name",257.282,"NoResp",0
"72","tb9226","NoQuestions",4,18,9,"bio","name",273.286,"NoResp",0
"73","tb9226","Questions",1,1,40,"phys","ec",1.019,"Yes",1.825
"74","tb9226","Questions",1,2,19,"bio","name",17.023,"Yes",1.559
"75","tb9226","Questions",1,3,36,"bio","job",34.044,"Yes",1.342
"76","tb9226","Questions",1,4,4,"bio","place",52.06,"Yes",1.368
"77","tb9226","Questions",1,5,32,"bio","job",66.075,"Yes",1.45
"78","tb9226","Questions",1,6,55,"phys","gender",83.095,"Yes",1.569
"79","tb9226","Questions",1,7,68,"phys","gender",100.118,"Yes",0.818
"80","tb9226","Questions",1,8,18,"bio","place",115.126,"Yes",1.57
"81","tb9226","Questions",1,9,49,"phys","ec",130.137,"Yes",0.923
"82","tb9226","Questions",1,10,24,"bio","job",144.155,"Yes",1.061
"83","tb9226","Questions",1,11,33,"bio","name",158.17,"Yes",1.192
"84","tb9226","Questions",1,12,47,"phys","gender",173.178,"Yes",0.827
"85","tb9226","Questions",1,13,64,"phys","race",188.189,"Yes",0.912
"86","tb9226","Questions",1,14,63,"phys","race",206.205,"Yes",6.28
"87","tb9226","Questions",1,15,43,"phys","race",224.222,"Yes",1.072
"88","tb9226","Questions",1,16,26,"bio","name",241.242,"Yes",0.927
"89","tb9226","Questions",1,17,9,"bio","place",257.252,"Yes",0.874
"90","tb9226","Questions",1,18,51,"phys","ec",273.273,"Yes",1.026
"91","tb9226","Questions",2,1,45,"phys","race",1.025,"Yes",0.896
"92","tb9226","Questions",2,2,27,"bio","job",18.045,"Yes",1.093
"93","tb9226","Questions",2,3,72,"phys","ec",35.068,"Yes",1.472
"94","tb9226","Questions",2,4,28,"bio","job",50.076,"Yes",0.726
"95","tb9226","Questions",2,5,70,"phys","gender",67.099,"Yes",1.282
"96","tb9226","Questions",2,6,23,"bio","place",85.116,"Yes",1.393
"97","tb9226","Questions",2,7,66,"phys","race",101.137,"Yes",0.908
"98","tb9226","Questions",2,8,38,"phys","ec",117.144,"Yes",1.414
"99","tb9226","Questions",2,9,52,"phys","gender",132.155,"Yes",0.807
"100","tb9226","Questions",2,10,31,"bio","place",148.179,"Yes",2.538
"101","tb9226","Questions",2,11,13,"bio","name",163.19,"Yes",0.922
"102","tb9226","Questions",2,12,17,"bio","name",177.205,"Yes",0.873
"103","tb9226","Questions",2,13,67,"phys","gender",193.212,"Yes",0.883
"104","tb9226","Questions",2,14,12,"bio","place",211.231,"Yes",1.213
"105","tb9226","Questions",2,15,58,"phys","race",225.243,"Yes",1.807
"106","tb9226","Questions",2,16,1,"bio","job",239.258,"Yes",0.852
"107","tb9226","Questions",2,17,16,"bio","name",256.278,"Yes",0.931
"108","tb9226","Questions",2,18,37,"phys","ec",274.295,"Yes",1.747
"109","tb9226","Questions",3,1,20,"bio","place",1.024,"Yes",0.922
"110","tb9226","Questions",3,2,34,"bio","place",15.039,"Yes",1.336
"111","tb9226","Questions",3,3,57,"phys","gender",33.056,"Yes",1.291
"112","tb9226","Questions",3,4,41,"phys","gender",49.083,"Yes",0.844
"113","tb9226","Questions",3,5,71,"phys","ec",64.091,"Yes",1.167
"114","tb9226","Questions",3,6,11,"bio","job",81.114,"Yes",1
"115","tb9226","Questions",3,7,59,"phys","ec",99.13,"Yes",0.745
"116","tb9226","Questions",3,8,62,"phys","race",114.138,"Yes",0.706
"117","tb9226","Questions",3,9,15,"bio","name",131.161,"Yes",0.654
"118","tb9226","Questions",3,10,22,"bio","name",148.182,"Yes",0.932
"119","tb9226","Questions",3,11,10,"bio","job",163.19,"Yes",0.707
"120","tb9226","Questions",3,12,65,"phys","race",180.213,"Yes",0.589
"121","tb9226","Questions",3,13,2,"bio","job",194.228,"Yes",0.634
"122","tb9226","Questions",3,14,5,"bio","name",212.241,"Yes",1.31
"123","tb9226","Questions",3,15,6,"bio","place",228.268,"Yes",0.864
"124","tb9226","Questions",3,16,39,"phys","gender",243.279,"Yes",0.682
"125","tb9226","Questions",3,17,48,"phys","race",259.303,"Yes",0.791
"126","tb9226","Questions",3,18,61,"phys","ec",273.318,"Yes",1.17
"127","tb9226","Questions",4,1,46,"phys","race",1.029,"Yes",0.775
"128","tb9226","Questions",4,2,69,"phys","gender",17.036,"Yes",1.475
"129","tb9226","Questions",4,3,7,"bio","name",32.047,"Yes",0.546
"130","tb9226","Questions",4,4,42,"phys","race",48.054,"Yes",0.734
"131","tb9226","Questions",4,5,29,"bio","job",64.078,"Yes",0.654
"132","tb9226","Questions",4,6,8,"bio","job",81.102,"Yes",0.969
"133","tb9226","Questions",4,7,53,"phys","gender",96.11,"Yes",0.742
"134","tb9226","Questions",4,8,25,"bio","place",112.137,"Yes",0.701
"135","tb9226","Questions",4,9,14,"bio","job",129.154,"Yes",0.558
"136","tb9226","Questions",4,10,44,"phys","race",146.174,"Yes",0.986
"137","tb9226","Questions",4,11,50,"phys","gender",164.19,"Yes",0.904
"138","tb9226","Questions",4,12,35,"bio","name",181.211,"Yes",0.628
"139","tb9226","Questions",4,13,21,"bio","place",195.225,"Yes",0.896
"140","tb9226","Questions",4,14,60,"phys","ec",210.236,"Yes",1.061
"141","tb9226","Questions",4,15,3,"bio","name",224.254,"Yes",0.947
"142","tb9226","Questions",4,16,56,"phys","ec",239.265,"Yes",0.791
"143","tb9226","Questions",4,17,54,"phys","ec",257.278,"Yes",0.823
"144","tb9226","Questions",4,18,30,"bio","place",275.295,"Yes",0.94
"145","tb9253","NoQuestions",1,1,19,"bio","job",1.03,"NoResp",0
"146","tb9253","NoQuestions",1,2,27,"bio","place",16.041,"NoResp",0
"147","tb9253","NoQuestions",1,3,49,"phys","race",34.058,"NoResp",0
"148","tb9253","NoQuestions",1,4,43,"phys","gender",50.068,"NoResp",0
"149","tb9253","NoQuestions",1,5,13,"bio","place",67.088,"NoResp",0
"150","tb9253","NoQuestions",1,6,53,"phys","ec",81.103,"NoResp",0
"151","tb9253","NoQuestions",1,7,51,"phys","ec",96.111,"NoResp",0
"152","tb9253","NoQuestions",1,8,28,"bio","name",111.122,"NoResp",0
"153","tb9253","NoQuestions",1,9,6,"bio","job",127.146,"NoResp",0
"154","tb9253","NoQuestions",1,10,69,"phys","ec",143.156,"NoResp",0
"155","tb9253","NoQuestions",1,11,32,"bio","name",160.176,"NoResp",0
"156","tb9253","NoQuestions",1,12,5,"bio","name",178.19,"NoResp",0
"157","tb9253","NoQuestions",1,13,3,"bio","job",196.206,"NoResp",0
"158","tb9253","NoQuestions",1,14,54,"phys","gender",210.221,"NoResp",0
"159","tb9253","NoQuestions",1,15,50,"phys","race",227.241,"NoResp",0
"160","tb9253","NoQuestions",1,16,15,"bio","place",244.261,"NoResp",0
"161","tb9253","NoQuestions",1,17,61,"phys","race",259.276,"NoResp",0
"162","tb9253","NoQuestions",1,18,58,"phys","gender",275.28,"NoResp",0
"163","tb9253","NoQuestions",2,1,18,"bio","job",1.027,"NoResp",0
"164","tb9253","NoQuestions",2,2,65,"phys","race",17.034,"NoResp",0
"165","tb9253","NoQuestions",2,3,44,"phys","gender",31.049,"NoResp",0
"166","tb9253","NoQuestions",2,4,12,"bio","place",45.067,"NoResp",0
"167","tb9253","NoQuestions",2,5,39,"phys","race",60.075,"NoResp",0
"168","tb9253","NoQuestions",2,6,25,"bio","name",76.102,"NoResp",0
"169","tb9253","NoQuestions",2,7,57,"phys","race",93.122,"NoResp",0
"170","tb9253","NoQuestions",2,8,7,"bio","place",111.135,"NoResp",0
"171","tb9253","NoQuestions",2,9,1,"bio","name",128.156,"NoResp",0
"172","tb9253","NoQuestions",2,10,35,"bio","place",144.183,"NoResp",0
"173","tb9253","NoQuestions",2,11,66,"phys","ec",160.187,"NoResp",0
"174","tb9253","NoQuestions",2,12,36,"bio","job",177.207,"NoResp",0
"175","tb9253","NoQuestions",2,13,60,"phys","ec",191.222,"NoResp",0
"176","tb9253","NoQuestions",2,14,11,"bio","name",206.233,"NoResp",0
"177","tb9253","NoQuestions",2,15,41,"phys","ec",224.249,"NoResp",0
"178","tb9253","NoQuestions",2,16,37,"phys","gender",242.266,"NoResp",0
"179","tb9253","NoQuestions",2,17,64,"phys","gender",257.277,"NoResp",0
"180","tb9253","NoQuestions",2,18,20,"bio","job",274.297,"NoResp",0
"181","tb9253","NoQuestions",3,1,71,"phys","gender",1.015,"NoResp",0
"182","tb9253","NoQuestions",3,2,45,"phys","ec",17.023,"NoResp",0
"183","tb9253","NoQuestions",3,3,29,"bio","name",31.037,"NoResp",0
"184","tb9253","NoQuestions",3,4,59,"phys","ec",49.057,"NoResp",0
"185","tb9253","NoQuestions",3,5,23,"bio","job",64.065,"NoResp",0
"186","tb9253","NoQuestions",3,6,14,"bio","place",79.076,"NoResp",0
"187","tb9253","NoQuestions",3,7,56,"phys","gender",93.091,"NoResp",0
"188","tb9253","NoQuestions",3,8,17,"bio","place",108.105,"NoResp",0
"189","tb9253","NoQuestions",3,9,24,"bio","job",125.125,"NoResp",0
"190","tb9253","NoQuestions",3,10,33,"bio","name",142.146,"NoResp",0
"191","tb9253","NoQuestions",3,11,34,"bio","place",160.162,"NoResp",0
"192","tb9253","NoQuestions",3,12,63,"phys","ec",174.173,"NoResp",0
"193","tb9253","NoQuestions",3,13,47,"phys","gender",189.184,"NoResp",0
"194","tb9253","NoQuestions",3,14,10,"bio","job",206.205,"NoResp",0
"195","tb9253","NoQuestions",3,15,62,"phys","race",222.232,"NoResp",0
"196","tb9253","NoQuestions",3,16,9,"bio","name",240.245,"NoResp",0
"197","tb9253","NoQuestions",3,17,55,"phys","race",257.265,"NoResp",0
"198","tb9253","NoQuestions",3,18,48,"phys","race",273.292,"NoResp",0
"199","tb9253","NoQuestions",4,1,40,"phys","race",1.016,"NoResp",0
"200","tb9253","NoQuestions",4,2,72,"phys","race",19.033,"NoResp",0
"201","tb9253","NoQuestions",4,3,4,"bio","name",36.053,"NoResp",0
"202","tb9253","NoQuestions",4,4,8,"bio","place",54.073,"NoResp",0
"203","tb9253","NoQuestions",4,5,26,"bio","job",71.093,"NoResp",0
"204","tb9253","NoQuestions",4,6,67,"phys","gender",86.101,"NoResp",0
"205","tb9253","NoQuestions",4,7,22,"bio","job",101.112,"NoResp",0
"206","tb9253","NoQuestions",4,8,30,"bio","job",118.132,"NoResp",0
"207","tb9253","NoQuestions",4,9,46,"phys","ec",133.146,"NoResp",0
"208","tb9253","NoQuestions",4,10,31,"bio","place",149.167,"NoResp",0
"209","tb9253","NoQuestions",4,11,52,"phys","gender",166.187,"NoResp",0
"210","tb9253","NoQuestions",4,12,16,"bio","place",182.194,"NoResp",0
"211","tb9253","NoQuestions",4,13,68,"phys","ec",196.212,"NoResp",0
"212","tb9253","NoQuestions",4,14,70,"phys","race",210.227,"NoResp",0
"213","tb9253","NoQuestions",4,15,38,"phys","gender",225.235,"NoResp",0
"214","tb9253","NoQuestions",4,16,42,"phys","ec",239.253,"NoResp",0
"215","tb9253","NoQuestions",4,17,2,"bio","name",257.266,"NoResp",0
"216","tb9253","NoQuestions",4,18,21,"bio","name",273.293,"NoResp",0
"217","tb9253","Questions",1,1,69,"phys","ec",1.028,"Yes",2.042
"218","tb9253","Questions",1,2,14,"bio","name",17.038,"Yes",1.21
"219","tb9253","Questions",1,3,30,"bio","job",34.059,"Yes",2.518
"220","tb9253","Questions",1,4,25,"bio","place",52.072,"Yes",2.092
"221","tb9253","Questions",1,5,7,"bio","job",66.09,"Yes",2.067
"222","tb9253","Questions",1,6,54,"phys","gender",83.11,"Yes",1.126
"223","tb9253","Questions",1,7,42,"phys","gender",100.13,"Yes",3.273
"224","tb9253","Questions",1,8,35,"bio","place",115.138,"Yes",0.801
"225","tb9253","Questions",1,9,56,"phys","ec",130.152,"Yes",2.057
"226","tb9253","Questions",1,10,3,"bio","job",144.164,"No",1.084
"227","tb9253","Questions",1,11,8,"bio","name",158.178,"Yes",0.77
"228","tb9253","Questions",1,12,44,"phys","gender",173.193,"Yes",1.761
"229","tb9253","Questions",1,13,60,"phys","race",188.203,"Yes",1.655
"230","tb9253","Questions",1,14,50,"phys","race",206.217,"Yes",0.945
"231","tb9253","Questions",1,15,46,"phys","race",224.237,"Yes",1.557
"232","tb9253","Questions",1,16,21,"bio","name",241.257,"No",1.45
"233","tb9253","Questions",1,17,29,"bio","place",257.261,"Yes",1.592
"234","tb9253","Questions",1,18,53,"phys","ec",273.285,"Yes",1.432
"235","tb9253","Questions",2,1,47,"phys","race",1.026,"Yes",0.943
"236","tb9253","Questions",2,2,4,"bio","job",18.046,"Yes",0.893
"237","tb9253","Questions",2,3,51,"phys","ec",35.069,"Yes",1.101
"238","tb9253","Questions",2,4,36,"bio","job",50.077,"Yes",0.869
"239","tb9253","Questions",2,5,49,"phys","gender",67.098,"Yes",0.858
"240","tb9253","Questions",2,6,32,"bio","place",85.118,"Yes",1.818
"241","tb9253","Questions",2,7,55,"phys","race",101.121,"Yes",1.711
"242","tb9253","Questions",2,8,68,"phys","ec",117.145,"Yes",1.739
"243","tb9253","Questions",2,9,63,"phys","gender",132.156,"Yes",1.93
"244","tb9253","Questions",2,10,19,"bio","place",148.183,"Yes",2.173
"245","tb9253","Questions",2,11,26,"bio","name",163.191,"Yes",0.712
"246","tb9253","Questions",2,12,18,"bio","name",177.206,"Yes",1.064
"247","tb9253","Questions",2,13,40,"phys","gender",193.233,"Yes",1.385
"248","tb9253","Questions",2,14,33,"bio","place",211.249,"Yes",0.612
"249","tb9253","Questions",2,15,43,"phys","race",225.264,"Yes",1.07
"250","tb9253","Questions",2,16,24,"bio","job",239.279,"Yes",0.768
"251","tb9253","Questions",2,17,9,"bio","name",256.296,"No",1.789
"252","tb9253","Questions",2,18,64,"phys","ec",274.312,"Yes",1.15
"253","tb9253","Questions",3,1,13,"bio","place",1.022,"No",1.636
"254","tb9253","Questions",3,2,27,"bio","place",15.036,"Yes",0.71
"255","tb9253","Questions",3,3,67,"phys","gender",33.053,"Yes",1.298
"256","tb9253","Questions",3,4,45,"phys","gender",49.06,"Yes",1.602
"257","tb9253","Questions",3,5,70,"phys","ec",64.074,"Yes",0.95
"258","tb9253","Questions",3,6,1,"bio","job",81.095,"No",1.338
"259","tb9253","Questions",3,7,38,"phys","ec",99.111,"Yes",1.308
"260","tb9253","Questions",3,8,66,"phys","race",114.119,"Yes",2.268
"261","tb9253","Questions",3,9,31,"bio","name",131.139,"Yes",0.667
"262","tb9253","Questions",3,10,12,"bio","name",148.159,"Yes",0.664
"263","tb9253","Questions",3,11,28,"bio","job",163.174,"Yes",1.204
"264","tb9253","Questions",3,12,37,"phys","race",180.194,"Yes",0.961
"265","tb9253","Questions",3,13,23,"bio","job",194.206,"Yes",1.835
"266","tb9253","Questions",3,14,16,"bio","name",212.222,"Yes",1.251
"267","tb9253","Questions",3,15,17,"bio","place",228.229,"No",0.723
"268","tb9253","Questions",3,16,58,"phys","gender",243.24,"Yes",2.367
"269","tb9253","Questions",3,17,52,"phys","race",259.247,"Yes",2.327
"270","tb9253","Questions",3,18,72,"phys","ec",273.262,"Yes",1.563
"271","tb9253","Questions",4,1,39,"phys","race",1.024,"Yes",1.219
"272","tb9253","Questions",4,2,57,"phys","gender",17.032,"Yes",1.923
"273","tb9253","Questions",4,3,2,"bio","name",32.046,"Yes",2.254
"274","tb9253","Questions",4,4,59,"phys","race",48.05,"Yes",0.665
"275","tb9253","Questions",4,5,5,"bio","job",64.077,"No",0.881
"276","tb9253","Questions",4,6,22,"bio","job",81.097,"Yes",1.561
"277","tb9253","Questions",4,7,61,"phys","gender",96.105,"Yes",0.834
"278","tb9253","Questions",4,8,34,"bio","place",112.129,"Yes",0.498
"279","tb9253","Questions",4,9,15,"bio","job",129.149,"No",0.987
"280","tb9253","Questions",4,10,41,"phys","race",146.169,"Yes",1.074
"281","tb9253","Questions",4,11,48,"phys","gender",164.186,"Yes",1.034
"282","tb9253","Questions",4,12,6,"bio","name",181.206,"Yes",1.845
"283","tb9253","Questions",4,13,20,"bio","place",195.221,"Yes",1.143
"284","tb9253","Questions",4,14,65,"phys","ec",210.232,"Yes",1.055
"285","tb9253","Questions",4,15,11,"bio","name",224.247,"Yes",1.172
"286","tb9253","Questions",4,16,71,"phys","ec",239.261,"Yes",1.026
"287","tb9253","Questions",4,17,62,"phys","ec",257.274,"Yes",0.697
"288","tb9253","Questions",4,18,10,"bio","place",275.291,"Yes",2.094
"289","tb9276","NoQuestions",1,1,45,"phys","gender",1.019,"NoResp",0
"290","tb9276","NoQuestions",1,2,47,"phys","gender",18.039,"NoResp",0
"291","tb9276","NoQuestions",1,3,71,"phys","race",36.058,"NoResp",0
"292","tb9276","NoQuestions",1,4,62,"phys","ec",53.079,"NoResp",0
"293","tb9276","NoQuestions",1,5,14,"bio","place",70.096,"NoResp",0
"294","tb9276","NoQuestions",1,6,17,"bio","place",86.103,"NoResp",0
"295","tb9276","NoQuestions",1,7,34,"bio","job",102.13,"NoResp",0
"296","tb9276","NoQuestions",1,8,23,"bio","job",117.141,"NoResp",0
"297","tb9276","NoQuestions",1,9,24,"bio","name",131.153,"NoResp",0
"298","tb9276","NoQuestions",1,10,55,"phys","ec",146.164,"NoResp",0
"299","tb9276","NoQuestions",1,11,56,"phys","race",162.188,"NoResp",0
"300","tb9276","NoQuestions",1,12,10,"bio","job",179.211,"NoResp",0
"301","tb9276","NoQuestions",1,13,59,"phys","race",197.228,"NoResp",0
"302","tb9276","NoQuestions",1,14,29,"bio","name",213.248,"NoResp",0
"303","tb9276","NoQuestions",1,15,9,"bio","place",227.263,"NoResp",0
"304","tb9276","NoQuestions",1,16,33,"bio","name",241.281,"NoResp",0
"305","tb9276","NoQuestions",1,17,48,"phys","ec",256.289,"NoResp",0
"306","tb9276","NoQuestions",1,18,63,"phys","gender",271.3,"NoResp",0
"307","tb9276","NoQuestions",2,1,43,"phys","race",1.013,"NoResp",0
"308","tb9276","NoQuestions",2,2,3,"bio","job",16.024,"NoResp",0
"309","tb9276","NoQuestions",2,3,27,"bio","place",32.031,"NoResp",0
"310","tb9276","NoQuestions",2,4,54,"phys","gender",50.048,"NoResp",0
"311","tb9276","NoQuestions",2,5,50,"phys","ec",67.068,"NoResp",0
"312","tb9276","NoQuestions",2,6,15,"bio","job",82.079,"NoResp",0
"313","tb9276","NoQuestions",2,7,51,"phys","ec",96.094,"NoResp",0
"314","tb9276","NoQuestions",2,8,69,"phys","ec",112.101,"NoResp",0
"315","tb9276","NoQuestions",2,9,6,"bio","job",127.112,"NoResp",0
"316","tb9276","NoQuestions",2,10,32,"bio","place",144.132,"NoResp",0
"317","tb9276","NoQuestions",2,11,19,"bio","name",161.152,"NoResp",0
"318","tb9276","NoQuestions",2,12,5,"bio","place",177.163,"NoResp",0
"319","tb9276","NoQuestions",2,13,58,"phys","race",191.178,"NoResp",0
"320","tb9276","NoQuestions",2,14,61,"phys","gender",209.194,"NoResp",0
"321","tb9276","NoQuestions",2,15,53,"phys","gender",224.202,"NoResp",0
"322","tb9276","NoQuestions",2,16,13,"bio","name",240.229,"NoResp",0
"323","tb9276","NoQuestions",2,17,28,"bio","name",257.246,"NoResp",0
"324","tb9276","NoQuestions",2,18,49,"phys","race",275.263,"NoResp",0
"325","tb9276","NoQuestions",3,1,25,"bio","place",1.029,"NoResp",0
"326","tb9276","NoQuestions",3,2,41,"phys","gender",17.036,"NoResp",0
"327","tb9276","NoQuestions",3,3,60,"phys","race",34.057,"NoResp",0
"328","tb9276","NoQuestions",3,4,66,"phys","ec",49.07,"NoResp",0
"329","tb9276","NoQuestions",3,5,20,"bio","name",64.078,"NoResp",0
"330","tb9276","NoQuestions",3,6,18,"bio","name",81.099,"NoResp",0
"331","tb9276","NoQuestions",3,7,65,"phys","race",98.122,"NoResp",0
"332","tb9276","NoQuestions",3,8,57,"phys","gender",115.142,"NoResp",0
"333","tb9276","NoQuestions",3,9,1,"bio","job",133.159,"NoResp",0
"334","tb9276","NoQuestions",3,10,12,"bio","name",147.173,"NoResp",0
"335","tb9276","NoQuestions",3,11,7,"bio","place",162.181,"NoResp",0
"336","tb9276","NoQuestions",3,12,44,"phys","race",176.196,"NoResp",0
"337","tb9276","NoQuestions",3,13,37,"phys","ec",194.212,"NoResp",0
"338","tb9276","NoQuestions",3,14,11,"bio","job",210.239,"NoResp",0
"339","tb9276","NoQuestions",3,15,39,"phys","gender",224.254,"NoResp",0
"340","tb9276","NoQuestions",3,16,35,"bio","place",242.271,"NoResp",0
"341","tb9276","NoQuestions",3,17,64,"phys","ec",258.295,"NoResp",0
"342","tb9276","NoQuestions",3,18,36,"bio","job",273.305,"NoResp",0
"343","tb9276","NoQuestions",4,1,21,"bio","job",1.02,"NoResp",0
"344","tb9276","NoQuestions",4,2,8,"bio","place",16.028,"NoResp",0
"345","tb9276","NoQuestions",4,3,38,"phys","race",34.045,"NoResp",0
"346","tb9276","NoQuestions",4,4,42,"phys","gender",50.072,"NoResp",0
"347","tb9276","NoQuestions",4,5,16,"bio","place",67.089,"NoResp",0
"348","tb9276","NoQuestions",4,6,68,"phys","ec",81.107,"NoResp",0
"349","tb9276","NoQuestions",4,7,67,"phys","ec",96.118,"NoResp",0
"350","tb9276","NoQuestions",4,8,4,"bio","name",111.125,"NoResp",0
"351","tb9276","NoQuestions",4,9,2,"bio","job",127.152,"NoResp",0
"352","tb9276","NoQuestions",4,10,70,"phys","ec",143.173,"NoResp",0
"353","tb9276","NoQuestions",4,11,30,"bio","name",160.193,"NoResp",0
"354","tb9276","NoQuestions",4,12,31,"bio","name",178.21,"NoResp",0
"355","tb9276","NoQuestions",4,13,26,"bio","job",196.227,"NoResp",0
"356","tb9276","NoQuestions",4,14,52,"phys","gender",210.241,"NoResp",0
"357","tb9276","NoQuestions",4,15,72,"phys","race",227.261,"NoResp",0
"358","tb9276","NoQuestions",4,16,22,"bio","place",244.282,"NoResp",0
"359","tb9276","NoQuestions",4,17,46,"phys","race",259.293,"NoResp",0
"360","tb9276","NoQuestions",4,18,40,"phys","gender",275.317,"NoResp",0
"361","tb9276","Questions",1,1,4,"bio","job",1.024,"Yes",0.537
"362","tb9276","Questions",1,2,49,"phys","race",17.031,"Yes",0.511
"363","tb9276","Questions",1,3,64,"phys","gender",31.046,"Yes",0.6
"364","tb9276","Questions",1,4,9,"bio","place",45.061,"Yes",0.56
"365","tb9276","Questions",1,5,43,"phys","race",60.075,"Yes",0.516
"366","tb9276","Questions",1,6,36,"bio","name",76.095,"Yes",0.665
"367","tb9276","Questions",1,7,68,"phys","race",93.116,"Yes",1.024
"368","tb9276","Questions",1,8,33,"bio","place",111.132,"Yes",0.552
"369","tb9276","Questions",1,9,19,"bio","name",128.152,"Yes",0.485
"370","tb9276","Questions",1,10,26,"bio","place",144.163,"Yes",0.5
"371","tb9276","Questions",1,11,55,"phys","ec",160.184,"Yes",0.495
"372","tb9276","Questions",1,12,18,"bio","job",177.204,"Yes",0.479
"373","tb9276","Questions",1,13,51,"phys","ec",191.218,"Yes",0.619
"374","tb9276","Questions",1,14,24,"bio","name",206.229,"Yes",0.491
"375","tb9276","Questions",1,15,63,"phys","ec",224.246,"Yes",0.84
"376","tb9276","Questions",1,16,47,"phys","gender",242.263,"Yes",0.576
"377","tb9276","Questions",1,17,40,"phys","gender",257.277,"Yes",0.942
"378","tb9276","Questions",1,18,32,"bio","job",274.297,"Yes",0.512
"379","tb9276","Questions",2,1,65,"phys","gender",1.027,"Yes",0.492
"380","tb9276","Questions",2,2,41,"phys","ec",17.035,"Yes",0.655
"381","tb9276","Questions",2,3,22,"bio","name",31.052,"Yes",0.586
"382","tb9276","Questions",2,4,62,"phys","ec",49.069,"Yes",0.546
"383","tb9276","Questions",2,5,11,"bio","job",64.077,"Yes",0.491
"384","tb9276","Questions",2,6,6,"bio","place",79.091,"Yes",0.739
"385","tb9276","Questions",2,7,57,"phys","gender",93.106,"Yes",0.524
"386","tb9276","Questions",2,8,2,"bio","place",108.113,"Yes",0.754
"387","tb9276","Questions",2,9,20,"bio","job",125.137,"Yes",0.733
"388","tb9276","Questions",2,10,34,"bio","name",142.157,"Yes",1.172
"389","tb9276","Questions",2,11,15,"bio","place",160.174,"Yes",0.596
"390","tb9276","Questions",2,12,59,"phys","ec",174.188,"Yes",1.591
"391","tb9276","Questions",2,13,48,"phys","gender",189.196,"Yes",0.541
"392","tb9276","Questions",2,14,10,"bio","job",206.219,"Yes",0.547
"393","tb9276","Questions",2,15,39,"phys","race",222.241,"Yes",0.522
"394","tb9276","Questions",2,16,5,"bio","name",240.257,"Yes",0.588
"395","tb9276","Questions",2,17,71,"phys","race",257.277,"Yes",0.499
"396","tb9276","Questions",2,18,61,"phys","race",273.287,"Yes",0.567
"397","tb9276","Questions",3,1,69,"phys","race",1.014,"Yes",0.543
"398","tb9276","Questions",3,2,54,"phys","race",19.034,"Yes",0.515
"399","tb9276","Questions",3,3,30,"bio","name",36.054,"Yes",0.46
"400","tb9276","Questions",3,4,7,"bio","place",54.071,"Yes",0.501
"401","tb9276","Questions",3,5,8,"bio","job",71.087,"Yes",0.737
"402","tb9276","Questions",3,6,56,"phys","gender",86.102,"Yes",0.508
"403","tb9276","Questions",3,7,21,"bio","job",101.109,"Yes",0.739
"404","tb9276","Questions",3,8,25,"bio","job",118.133,"Yes",0.408
"405","tb9276","Questions",3,9,53,"phys","ec",133.141,"Yes",0.551
"406","tb9276","Questions",3,10,14,"bio","place",149.168,"Yes",0.437
"407","tb9276","Questions",3,11,46,"phys","gender",166.188,"Yes",0.419
"408","tb9276","Questions",3,12,3,"bio","place",182.192,"Yes",0.451
"409","tb9276","Questions",3,13,50,"phys","ec",196.207,"Yes",0.483
"410","tb9276","Questions",3,14,60,"phys","race",210.221,"Yes",0.446
"411","tb9276","Questions",3,15,42,"phys","gender",225.236,"Yes",0.676
"412","tb9276","Questions",3,16,44,"phys","ec",239.25,"Yes",0.513
"413","tb9276","Questions",3,17,35,"bio","name",257.267,"Yes",0.513
"414","tb9276","Questions",3,18,29,"bio","name",273.288,"Yes",0.512
"415","tb9276","Questions",4,1,67,"phys","ec",1.016,"Yes",0.57
"416","tb9276","Questions",4,2,31,"bio","name",17.04,"Yes",0.475
"417","tb9276","Questions",4,3,28,"bio","job",34.046,"Yes",0.435
"418","tb9276","Questions",4,4,27,"bio","place",52.063,"Yes",0.555
"419","tb9276","Questions",4,5,23,"bio","job",66.078,"Yes",0.49
"420","tb9276","Questions",4,6,66,"phys","gender",83.098,"Yes",1.121
"421","tb9276","Questions",4,7,38,"phys","gender",100.115,"Yes",0.515
"422","tb9276","Questions",4,8,17,"bio","place",115.129,"Yes",0.533
"423","tb9276","Questions",4,9,70,"phys","ec",130.137,"Yes",0.574
"424","tb9276","Questions",4,10,1,"bio","job",144.155,"Yes",0.512
"425","tb9276","Questions",4,11,12,"bio","name",158.166,"Yes",0.448
"426","tb9276","Questions",4,12,45,"phys","gender",173.18,"Yes",0.473
"427","tb9276","Questions",4,13,37,"phys","race",188.188,"Yes",0.622
"428","tb9276","Questions",4,14,52,"phys","race",206.205,"Yes",0.701
"429","tb9276","Questions",4,15,58,"phys","race",224.221,"Yes",0.452
"430","tb9276","Questions",4,16,13,"bio","name",241.241,"Yes",0.551
"431","tb9276","Questions",4,17,16,"bio","place",257.269,"Yes",0.588
"432","tb9276","Questions",4,18,72,"phys","ec",273.273,"Yes",0.879
"433","tb9325","NoQuestions",1,1,1,"phys","race",1.029,"NoResp",0
"434","tb9325","NoQuestions",1,2,54,"bio","job",18.046,"NoResp",0
"435","tb9325","NoQuestions",1,3,24,"phys","ec",35.066,"NoResp",0
"436","tb9325","NoQuestions",1,4,61,"bio","job",50.081,"NoResp",0
"437","tb9325","NoQuestions",1,5,29,"phys","gender",67.097,"NoResp",0
"438","tb9325","NoQuestions",1,6,56,"bio","place",85.114,"NoResp",0
"439","tb9325","NoQuestions",1,7,30,"phys","race",101.121,"NoResp",0
"440","tb9325","NoQuestions",1,8,21,"phys","ec",117.148,"NoResp",0
"441","tb9325","NoQuestions",1,9,5,"phys","gender",132.159,"NoResp",0
"442","tb9325","NoQuestions",1,10,37,"bio","place",148.18,"NoResp",0
"443","tb9325","NoQuestions",1,11,71,"bio","name",163.194,"NoResp",0
"444","tb9325","NoQuestions",1,12,72,"bio","name",177.209,"NoResp",0
"445","tb9325","NoQuestions",1,13,28,"phys","gender",193.233,"NoResp",0
"446","tb9325","NoQuestions",1,14,43,"bio","place",211.249,"NoResp",0
"447","tb9325","NoQuestions",1,15,3,"phys","race",225.264,"NoResp",0
"448","tb9325","NoQuestions",1,16,47,"bio","job",239.279,"NoResp",0
"449","tb9325","NoQuestions",1,17,48,"bio","name",256.299,"NoResp",0
"450","tb9325","NoQuestions",1,18,8,"phys","ec",274.316,"NoResp",0
"451","tb9325","NoQuestions",2,1,51,"bio","place",1.015,"NoResp",0
"452","tb9325","NoQuestions",2,2,68,"bio","place",15.033,"NoResp",0
"453","tb9325","NoQuestions",2,3,22,"phys","gender",33.049,"NoResp",0
"454","tb9325","NoQuestions",2,4,7,"phys","gender",49.053,"NoResp",0
"455","tb9325","NoQuestions",2,5,15,"phys","ec",64.065,"NoResp",0
"456","tb9325","NoQuestions",2,6,49,"bio","job",81.084,"NoResp",0
"457","tb9325","NoQuestions",2,7,13,"phys","ec",99.101,"NoResp",0
"458","tb9325","NoQuestions",2,8,14,"phys","race",114.115,"NoResp",0
"459","tb9325","NoQuestions",2,9,41,"bio","name",131.132,"NoResp",0
"460","tb9325","NoQuestions",2,10,39,"bio","name",148.152,"NoResp",0
"461","tb9325","NoQuestions",2,11,64,"bio","job",163.167,"NoResp",0
"462","tb9325","NoQuestions",2,12,33,"phys","race",180.184,"NoResp",0
"463","tb9325","NoQuestions",2,13,63,"bio","job",194.202,"NoResp",0
"464","tb9325","NoQuestions",2,14,55,"bio","name",212.218,"NoResp",0
"465","tb9325","NoQuestions",2,15,42,"bio","place",228.222,"NoResp",0
"466","tb9325","NoQuestions",2,16,18,"phys","gender",243.233,"NoResp",0
"467","tb9325","NoQuestions",2,17,17,"phys","race",259.257,"NoResp",0
"468","tb9325","NoQuestions",2,18,25,"phys","ec",273.272,"NoResp",0
"469","tb9325","NoQuestions",3,1,26,"phys","race",1.029,"NoResp",0
"470","tb9325","NoQuestions",3,2,20,"phys","gender",17.036,"NoResp",0
"471","tb9325","NoQuestions",3,3,53,"bio","name",32.048,"NoResp",0
"472","tb9325","NoQuestions",3,4,27,"phys","race",48.075,"NoResp",0
"473","tb9325","NoQuestions",3,5,45,"bio","job",64.095,"NoResp",0
"474","tb9325","NoQuestions",3,6,65,"bio","job",81.116,"NoResp",0
"475","tb9325","NoQuestions",3,7,12,"phys","gender",96.127,"NoResp",0
"476","tb9325","NoQuestions",3,8,69,"bio","place",112.134,"NoResp",0
"477","tb9325","NoQuestions",3,9,70,"bio","job",129.157,"NoResp",0
"478","tb9325","NoQuestions",3,10,9,"phys","race",146.178,"NoResp",0
"479","tb9325","NoQuestions",3,11,11,"phys","gender",164.194,"NoResp",0
"480","tb9325","NoQuestions",3,12,50,"bio","name",181.211,"NoResp",0
"481","tb9325","NoQuestions",3,13,60,"bio","place",195.229,"NoResp",0
"482","tb9325","NoQuestions",3,14,35,"phys","ec",210.237,"NoResp",0
"483","tb9325","NoQuestions",3,15,59,"bio","name",224.251,"NoResp",0
"484","tb9325","NoQuestions",3,16,19,"phys","ec",239.262,"NoResp",0
"485","tb9325","NoQuestions",3,17,23,"phys","ec",257.279,"NoResp",0
"486","tb9325","NoQuestions",3,18,46,"bio","place",275.296,"NoResp",0
"487","tb9325","NoQuestions",4,1,2,"phys","gender",1.027,"NoResp",0
"488","tb9325","NoQuestions",4,2,40,"bio","name",16.042,"NoResp",0
"489","tb9325","NoQuestions",4,3,10,"phys","ec",31.049,"NoResp",0
"490","tb9325","NoQuestions",4,4,44,"bio","job",49.066,"NoResp",0
"491","tb9325","NoQuestions",4,5,58,"bio","name",63.081,"NoResp",0
"492","tb9325","NoQuestions",4,6,38,"bio","place",77.096,"NoResp",0
"493","tb9325","NoQuestions",4,7,36,"phys","race",92.11,"NoResp",0
"494","tb9325","NoQuestions",4,8,16,"phys","race",108.13,"NoResp",0
"495","tb9325","NoQuestions",4,9,32,"phys","gender",124.141,"NoResp",0
"496","tb9325","NoQuestions",4,10,66,"bio","job",140.162,"NoResp",0
"497","tb9325","NoQuestions",4,11,6,"phys","ec",157.182,"NoResp",0
"498","tb9325","NoQuestions",4,12,57,"bio","job",174.202,"NoResp",0
"499","tb9325","NoQuestions",4,13,34,"phys","race",191.222,"NoResp",0
"500","tb9325","NoQuestions",4,14,62,"bio","place",208.246,"NoResp",0
"501","tb9325","NoQuestions",4,15,52,"bio","name",224.25,"NoResp",0
"502","tb9325","NoQuestions",4,16,31,"phys","ec",242.266,"NoResp",0
"503","tb9325","NoQuestions",4,17,4,"phys","gender",257.28,"NoResp",0
"504","tb9325","NoQuestions",4,18,67,"bio","place",271.295,"NoResp",0
"505","tb9325","Questions",1,1,50,"bio","place",1.019,"Yes",2.236
"506","tb9325","Questions",1,2,61,"bio","job",17.026,"Yes",1.848
"507","tb9325","Questions",1,3,18,"phys","gender",33.034,"Yes",1.533
"508","tb9325","Questions",1,4,10,"phys","gender",48.048,"Yes",1.95
"509","tb9325","Questions",1,5,66,"bio","job",62.062,"Yes",2.286
"510","tb9325","Questions",1,6,17,"phys","race",79.083,"Yes",1.393
"511","tb9325","Questions",1,7,44,"bio","job",96.103,"Yes",1.609
"512","tb9325","Questions",1,8,71,"bio","place",114.119,"Yes",1.366
"513","tb9325","Questions",1,9,6,"phys","ec",130.123,"Yes",1.605
"514","tb9325","Questions",1,10,24,"phys","ec",147.144,"Yes",1.338
"515","tb9325","Questions",1,11,43,"bio","place",161.158,"Yes",1.599
"516","tb9325","Questions",1,12,20,"phys","race",179.175,"Yes",1.597
"517","tb9325","Questions",1,13,65,"bio","name",195.202,"Yes",1.314
"518","tb9325","Questions",1,14,57,"bio","name",213.218,"Yes",1
"519","tb9325","Questions",1,15,39,"bio","name",227.233,"Yes",1.162
"520","tb9325","Questions",1,16,33,"phys","race",242.241,"Yes",1.206
"521","tb9325","Questions",1,17,8,"phys","ec",259.261,"Yes",1.052
"522","tb9325","Questions",1,18,14,"phys","gender",274.272,"Yes",1.645
"523","tb9325","Questions",2,1,32,"phys","gender",1.029,"Yes",1.453
"524","tb9325","Questions",2,2,54,"bio","name",19.045,"Yes",0.977
"525","tb9325","Questions",2,3,55,"bio","job",37.062,"Yes",1.606
"526","tb9325","Questions",2,4,60,"bio","name",55.078,"Yes",1.359
"527","tb9325","Questions",2,5,69,"bio","place",71.086,"Yes",1.43
"528","tb9325","Questions",2,6,27,"phys","gender",85.1,"Yes",1.563
"529","tb9325","Questions",2,7,40,"bio","place",101.128,"Yes",1.246
"530","tb9325","Questions",2,8,15,"phys","race",118.145,"Yes",1.324
"531","tb9325","Questions",2,9,4,"phys","ec",134.152,"Yes",1.221
"532","tb9325","Questions",2,10,7,"phys","race",149.163,"Yes",1.659
"533","tb9325","Questions",2,11,28,"phys","ec",166.183,"Yes",1.135
"534","tb9325","Questions",2,12,72,"bio","name",181.197,"Yes",1.054
"535","tb9325","Questions",2,13,68,"bio","job",197.201,"Yes",1
"536","tb9325","Questions",2,14,19,"phys","ec",211.216,"Yes",1.684
"537","tb9325","Questions",2,15,62,"bio","place",228.236,"Yes",2.036
"538","tb9325","Questions",2,16,13,"phys","gender",245.26,"Yes",1.084
"539","tb9325","Questions",2,17,11,"phys","race",259.274,"Yes",1.293
"540","tb9325","Questions",2,18,45,"bio","job",274.282,"Yes",2.339
"541","tb9325","Questions",3,1,29,"phys","race",1.015,"Yes",1.106
"542","tb9325","Questions",3,2,41,"bio","job",16.029,"Yes",1.296
"543","tb9325","Questions",3,3,42,"bio","name",33.05,"Yes",1.451
"544","tb9325","Questions",3,4,38,"bio","name",51.066,"Yes",1.095
"545","tb9325","Questions",3,5,58,"bio","job",66.077,"Yes",1.143
"546","tb9325","Questions",3,6,51,"bio","job",84.093,"Yes",1.249
"547","tb9325","Questions",3,7,46,"bio","name",100.118,"Yes",0.979
"548","tb9325","Questions",3,8,5,"phys","gender",117.134,"Yes",1.372
"549","tb9325","Questions",3,9,12,"phys","race",133.145,"Yes",1.576
"550","tb9325","Questions",3,10,70,"bio","place",151.161,"Yes",1.493
"551","tb9325","Questions",3,11,25,"phys","gender",167.182,"Yes",1.773
"552","tb9325","Questions",3,12,21,"phys","ec",182.196,"Yes",1.569
"553","tb9325","Questions",3,13,47,"bio","place",196.208,"Yes",1.47
"554","tb9325","Questions",3,14,23,"phys","ec",213.231,"Yes",1.101
"555","tb9325","Questions",3,15,26,"phys","gender",230.252,"Yes",0.966
"556","tb9325","Questions",3,16,56,"bio","place",244.266,"Yes",1.297
"557","tb9325","Questions",3,17,35,"phys","ec",260.27,"Yes",1.172
"558","tb9325","Questions",3,18,3,"phys","race",275.285,"Yes",1.023
"559","tb9325","Questions",4,1,53,"bio","name",1.029,"Yes",0.912
"560","tb9325","Questions",4,2,63,"bio","place",18.05,"Yes",1.184
"561","tb9325","Questions",4,3,30,"phys","race",34.053,"Yes",1.103
"562","tb9325","Questions",4,4,59,"bio","name",49.065,"Yes",1
"563","tb9325","Questions",4,5,48,"bio","name",64.079,"Yes",1.025
"564","tb9325","Questions",4,6,67,"bio","job",80.099,"Yes",0.74
"565","tb9325","Questions",4,7,22,"phys","ec",96.107,"Yes",0.812
"566","tb9325","Questions",4,8,16,"phys","ec",113.13,"Yes",1.066
"567","tb9325","Questions",4,9,37,"bio","job",128.138,"Yes",1.199
"568","tb9325","Questions",4,10,31,"phys","ec",145.161,"Yes",1.039
"569","tb9325","Questions",4,11,34,"phys","race",160.169,"Yes",2.421
"570","tb9325","Questions",4,12,36,"phys","gender",178.186,"Yes",1.192
"571","tb9325","Questions",4,13,9,"phys","gender",195.206,"Yes",1.453
"572","tb9325","Questions",4,14,64,"bio","place",209.221,"Yes",0.745
"573","tb9325","Questions",4,15,52,"bio","job",227.237,"Yes",0.968
"574","tb9325","Questions",4,16,49,"bio","place",245.254,"Yes",0.663
"575","tb9325","Questions",4,17,1,"phys","gender",259.268,"Yes",0.901
"576","tb9325","Questions",4,18,2,"phys","race",275.276,"Yes",1.1
"577","tb9360","NoQuestions",1,1,57,"bio","job",11.066,"NoResp",0
"578","tb9360","NoQuestions",1,2,44,"bio","place",26.077,"NoResp",0
"579","tb9360","NoQuestions",1,3,2,"phys","race",44.097,"NoResp",0
"580","tb9360","NoQuestions",1,4,6,"phys","gender",60.101,"NoResp",0
"581","tb9360","NoQuestions",1,5,52,"bio","place",77.121,"NoResp",0
"582","tb9360","NoQuestions",1,6,32,"phys","ec",91.136,"NoResp",0
"583","tb9360","NoQuestions",1,7,31,"phys","ec",106.164,"NoResp",0
"584","tb9360","NoQuestions",1,8,40,"bio","name",121.178,"NoResp",0
"585","tb9360","NoQuestions",1,9,38,"bio","job",137.182,"NoResp",0
"586","tb9360","NoQuestions",1,10,34,"phys","ec",153.206,"NoResp",0
"587","tb9360","NoQuestions",1,11,66,"bio","name",170.226,"NoResp",0
"588","tb9360","NoQuestions",1,12,67,"bio","name",188.243,"NoResp",0
"589","tb9360","NoQuestions",1,13,62,"bio","job",206.262,"NoResp",0
"590","tb9360","NoQuestions",1,14,16,"phys","gender",220.277,"NoResp",0
"591","tb9360","NoQuestions",1,15,36,"phys","race",237.297,"NoResp",0
"592","tb9360","NoQuestions",1,16,58,"bio","place",254.317,"NoResp",0
"593","tb9360","NoQuestions",1,17,10,"phys","race",269.325,"NoResp",0
"594","tb9360","NoQuestions",1,18,4,"phys","gender",285.352,"NoResp",0
"595","tb9360","NoQuestions",2,1,54,"bio","job",11.071,"NoResp",0
"596","tb9360","NoQuestions",2,2,29,"phys","race",27.079,"NoResp",0
"597","tb9360","NoQuestions",2,3,8,"phys","gender",41.09,"NoResp",0
"598","tb9360","NoQuestions",2,4,48,"bio","place",55.105,"NoResp",0
"599","tb9360","NoQuestions",2,5,3,"phys","race",70.119,"NoResp",0
"600","tb9360","NoQuestions",2,6,61,"bio","name",86.123,"NoResp",0
"601","tb9360","NoQuestions",2,7,21,"phys","race",103.143,"NoResp",0
"602","tb9360","NoQuestions",2,8,43,"bio","place",121.163,"NoResp",0
"603","tb9360","NoQuestions",2,9,37,"bio","name",138.183,"NoResp",0
"604","tb9360","NoQuestions",2,10,71,"bio","place",154.187,"NoResp",0
"605","tb9360","NoQuestions",2,11,30,"phys","ec",170.211,"NoResp",0
"606","tb9360","NoQuestions",2,12,72,"bio","job",187.235,"NoResp",0
"607","tb9360","NoQuestions",2,13,24,"phys","ec",201.249,"NoResp",0
"608","tb9360","NoQuestions",2,14,47,"bio","name",216.257,"NoResp",0
"609","tb9360","NoQuestions",2,15,5,"phys","ec",234.277,"NoResp",0
"610","tb9360","NoQuestions",2,16,1,"phys","gender",252.293,"NoResp",0
"611","tb9360","NoQuestions",2,17,28,"phys","gender",267.301,"NoResp",0
"612","tb9360","NoQuestions",2,18,56,"bio","job",284.321,"NoResp",0
"613","tb9360","NoQuestions",3,1,33,"phys","gender",11.061,"NoResp",0
"614","tb9360","NoQuestions",3,2,7,"phys","ec",27.068,"NoResp",0
"615","tb9360","NoQuestions",3,3,39,"bio","name",41.086,"NoResp",0
"616","tb9360","NoQuestions",3,4,14,"phys","ec",59.099,"NoResp",0
"617","tb9360","NoQuestions",3,5,49,"bio","job",74.11,"NoResp",0
"618","tb9360","NoQuestions",3,6,42,"bio","place",89.124,"NoResp",0
"619","tb9360","NoQuestions",3,7,22,"phys","gender",103.139,"NoResp",0
"620","tb9360","NoQuestions",3,8,63,"bio","place",118.15,"NoResp",0
"621","tb9360","NoQuestions",3,9,51,"bio","job",135.17,"NoResp",0
"622","tb9360","NoQuestions",3,10,68,"bio","name",152.19,"NoResp",0
"623","tb9360","NoQuestions",3,11,41,"bio","place",170.204,"NoResp",0
"624","tb9360","NoQuestions",3,12,13,"phys","ec",184.218,"NoResp",0
"625","tb9360","NoQuestions",3,13,17,"phys","gender",199.229,"NoResp",0
"626","tb9360","NoQuestions",3,14,64,"bio","job",216.25,"NoResp",0
"627","tb9360","NoQuestions",3,15,18,"phys","race",232.257,"NoResp",0
"628","tb9360","NoQuestions",3,16,55,"bio","name",250.273,"NoResp",0
"629","tb9360","NoQuestions",3,17,15,"phys","race",267.294,"NoResp",0
"630","tb9360","NoQuestions",3,18,25,"phys","race",283.301,"NoResp",0
"631","tb9360","NoQuestions",4,1,20,"phys","race",11.06,"NoResp",0
"632","tb9360","NoQuestions",4,2,23,"phys","race",29.08,"NoResp",0
"633","tb9360","NoQuestions",4,3,46,"bio","name",46.1,"NoResp",0
"634","tb9360","NoQuestions",4,4,53,"bio","place",64.113,"NoResp",0
"635","tb9360","NoQuestions",4,5,65,"bio","job",81.136,"NoResp",0
"636","tb9360","NoQuestions",4,6,19,"phys","gender",96.144,"NoResp",0
"637","tb9360","NoQuestions",4,7,60,"bio","job",111.159,"NoResp",0
"638","tb9360","NoQuestions",4,8,69,"bio","job",128.179,"NoResp",0
"639","tb9360","NoQuestions",4,9,12,"phys","ec",143.187,"NoResp",0
"640","tb9360","NoQuestions",4,10,70,"bio","place",159.194,"NoResp",0
"641","tb9360","NoQuestions",4,11,26,"phys","gender",176.214,"NoResp",0
"642","tb9360","NoQuestions",4,12,59,"bio","place",192.221,"NoResp",0
"643","tb9360","NoQuestions",4,13,11,"phys","ec",206.236,"NoResp",0
"644","tb9360","NoQuestions",4,14,35,"phys","race",220.251,"NoResp",0
"645","tb9360","NoQuestions",4,15,27,"phys","gender",235.262,"NoResp",0
"646","tb9360","NoQuestions",4,16,9,"phys","ec",249.277,"NoResp",0
"647","tb9360","NoQuestions",4,17,50,"bio","name",267.296,"NoResp",0
"648","tb9360","NoQuestions",4,18,45,"bio","name",283.3,"NoResp",0
"649","tb9360","Questions",1,1,31,"phys","ec",11.074,"Yes",1.765
"650","tb9360","Questions",1,2,67,"bio","name",27.078,"Yes",4.035
"651","tb9360","Questions",1,3,64,"bio","job",44.098,"Yes",2.345
"652","tb9360","Questions",1,4,63,"bio","place",62.115,"Yes",3.83
"653","tb9360","Questions",1,5,59,"bio","job",76.13,"Yes",1.391
"654","tb9360","Questions",1,6,30,"phys","gender",93.15,"Yes",2.461
"655","tb9360","Questions",1,7,2,"phys","gender",110.17,"Yes",2.583
"656","tb9360","Questions",1,8,53,"bio","place",125.181,"Yes",1.43
"657","tb9360","Questions",1,9,34,"phys","ec",140.195,"Yes",1.119
"658","tb9360","Questions",1,10,37,"bio","job",154.21,"Yes",5.995
"659","tb9360","Questions",1,11,48,"bio","name",168.225,"No",1.633
"660","tb9360","Questions",1,12,9,"phys","gender",183.235,"Yes",1.945
"661","tb9360","Questions",1,13,1,"phys","race",198.26,"Yes",1.358
"662","tb9360","Questions",1,14,16,"phys","race",216.28,"Yes",1.545
"663","tb9360","Questions",1,15,22,"phys","race",234.296,"Yes",1.438
"664","tb9360","Questions",1,16,49,"bio","name",251.316,"No",4.054
"665","tb9360","Questions",1,17,52,"bio","place",267.341,"Yes",1.839
"666","tb9360","Questions",1,18,36,"phys","ec",283.344,"Yes",2.626
"667","tb9360","Questions",2,1,8,"phys","race",11.064,"Yes",1.797
"668","tb9360","Questions",2,2,61,"bio","job",28.084,"Yes",2.091
"669","tb9360","Questions",2,3,17,"phys","ec",45.104,"Yes",1.679
"670","tb9360","Questions",2,4,66,"bio","job",60.115,"Yes",1.63
"671","tb9360","Questions",2,5,20,"phys","gender",77.135,"Yes",2.005
"672","tb9360","Questions",2,6,43,"bio","place",95.155,"Yes",1.791
"673","tb9360","Questions",2,7,18,"phys","race",111.159,"Yes",2.232
"674","tb9360","Questions",2,8,6,"phys","ec",127.183,"Yes",1
"675","tb9360","Questions",2,9,14,"phys","gender",142.194,"Yes",2.557
"676","tb9360","Questions",2,10,50,"bio","place",158.221,"No",3.504
"677","tb9360","Questions",2,11,57,"bio","name",173.229,"No",2.709
"678","tb9360","Questions",2,12,71,"bio","name",187.244,"Yes",6.146
"679","tb9360","Questions",2,13,33,"phys","gender",203.268,"Yes",2.617
"680","tb9360","Questions",2,14,44,"bio","place",221.287,"Yes",4.96
"681","tb9360","Questions",2,15,10,"phys","race",235.302,"Yes",1.214
"682","tb9360","Questions",2,16,39,"bio","job",249.314,"Yes",1.101
"683","tb9360","Questions",2,17,65,"bio","name",266.334,"No",1.941
"684","tb9360","Questions",2,18,24,"phys","ec",284.35,"Yes",2.624
"685","tb9360","Questions",3,1,62,"bio","place",11.06,"Yes",1.204
"686","tb9360","Questions",3,2,40,"bio","place",25.075,"Yes",3.065
"687","tb9360","Questions",3,3,4,"phys","gender",43.091,"Yes",2.417
"688","tb9360","Questions",3,4,11,"phys","gender",59.115,"Yes",1.47
"689","tb9360","Questions",3,5,13,"phys","ec",74.126,"Yes",2.524
"690","tb9360","Questions",3,6,60,"bio","job",91.147,"No",3.928
"691","tb9360","Questions",3,7,32,"phys","ec",109.163,"Yes",0.925
"692","tb9360","Questions",3,8,19,"phys","race",124.177,"Yes",1.526
"693","tb9360","Questions",3,9,55,"bio","name",141.198,"NoResp",0
"694","tb9360","Questions",3,10,69,"bio","name",158.218,"Yes",2.317
"695","tb9360","Questions",3,11,72,"bio","job",173.225,"Yes",4.236
"696","tb9360","Questions",3,12,28,"phys","race",190.246,"Yes",1.376
"697","tb9360","Questions",3,13,68,"bio","job",204.263,"Yes",2.926
"698","tb9360","Questions",3,14,45,"bio","name",222.277,"No",1.402
"699","tb9360","Questions",3,15,54,"bio","place",238.304,"Yes",1.532
"700","tb9360","Questions",3,16,7,"phys","gender",253.312,"Yes",6.743
"701","tb9360","Questions",3,17,27,"phys","race",269.336,"Yes",1.925
"702","tb9360","Questions",3,18,15,"phys","ec",283.35,"Yes",1.405
"703","tb9360","Questions",4,1,3,"phys","race",11.064,"Yes",1.397
"704","tb9360","Questions",4,2,21,"phys","gender",27.071,"Yes",1.787
"705","tb9360","Questions",4,3,38,"bio","name",42.085,"No",1.419
"706","tb9360","Questions",4,4,23,"phys","race",58.106,"Yes",2.371
"707","tb9360","Questions",4,5,41,"bio","job",74.113,"Yes",5.534
"708","tb9360","Questions",4,6,58,"bio","job",91.137,"Yes",2.642
"709","tb9360","Questions",4,7,25,"phys","gender",106.145,"Yes",3.249
"710","tb9360","Questions",4,8,70,"bio","place",122.172,"Yes",6.275
"711","tb9360","Questions",4,9,51,"bio","job",139.192,"No",2.677
"712","tb9360","Questions",4,10,5,"phys","race",156.212,"Yes",1.315
"713","tb9360","Questions",4,11,12,"phys","gender",174.225,"Yes",1.36
"714","tb9360","Questions",4,12,42,"bio","name",191.246,"No",2.576
"715","tb9360","Questions",4,13,56,"bio","place",205.26,"Yes",1.326
"716","tb9360","Questions",4,14,29,"phys","ec",220.271,"Yes",1.68
"717","tb9360","Questions",4,15,47,"bio","name",234.286,"No",1.626
"718","tb9360","Questions",4,16,35,"phys","ec",249.3,"Yes",1.204
"719","tb9360","Questions",4,17,26,"phys","ec",267.314,"Yes",1.932
"720","tb9360","Questions",4,18,46,"bio","place",285.33,"Yes",2.994
"721","tb9399","NoQuestions",1,1,55,"bio","job",11.071,"NoResp",0
"722","tb9399","NoQuestions",1,2,63,"bio","place",26.082,"NoResp",0
"723","tb9399","NoQuestions",1,3,13,"phys","race",44.099,"NoResp",0
"724","tb9399","NoQuestions",1,4,7,"phys","gender",60.106,"NoResp",0
"725","tb9399","NoQuestions",1,5,49,"bio","place",77.126,"NoResp",0
"726","tb9399","NoQuestions",1,6,17,"phys","ec",91.141,"NoResp",0
"727","tb9399","NoQuestions",1,7,15,"phys","ec",106.155,"NoResp",0
"728","tb9399","NoQuestions",1,8,64,"bio","name",121.163,"NoResp",0
"729","tb9399","NoQuestions",1,9,42,"bio","job",137.19,"NoResp",0
"730","tb9399","NoQuestions",1,10,33,"phys","ec",153.194,"NoResp",0
"731","tb9399","NoQuestions",1,11,68,"bio","name",170.214,"NoResp",0
"732","tb9399","NoQuestions",1,12,41,"bio","name",188.234,"NoResp",0
"733","tb9399","NoQuestions",1,13,39,"bio","job",206.25,"NoResp",0
"734","tb9399","NoQuestions",1,14,18,"phys","gender",220.265,"NoResp",0
"735","tb9399","NoQuestions",1,15,14,"phys","race",237.285,"NoResp",0
"736","tb9399","NoQuestions",1,16,51,"bio","place",254.306,"NoResp",0
"737","tb9399","NoQuestions",1,17,25,"phys","race",269.314,"NoResp",0
"738","tb9399","NoQuestions",1,18,22,"phys","gender",285.337,"NoResp",0
"739","tb9399","NoQuestions",2,1,69,"bio","job",11.07,"NoResp",0
"740","tb9399","NoQuestions",2,2,19,"phys","race",27.078,"NoResp",0
"741","tb9399","NoQuestions",2,3,35,"phys","gender",41.095,"NoResp",0
"742","tb9399","NoQuestions",2,4,45,"bio","place",55.11,"NoResp",0
"743","tb9399","NoQuestions",2,5,26,"phys","race",70.12,"NoResp",0
"744","tb9399","NoQuestions",2,6,46,"bio","name",86.141,"NoResp",0
"745","tb9399","NoQuestions",2,7,27,"phys","race",103.162,"NoResp",0
"746","tb9399","NoQuestions",2,8,65,"bio","place",121.178,"NoResp",0
"747","tb9399","NoQuestions",2,9,70,"bio","name",138.198,"NoResp",0
"748","tb9399","NoQuestions",2,10,60,"bio","place",154.206,"NoResp",0
"749","tb9399","NoQuestions",2,11,23,"phys","ec",170.213,"NoResp",0
"750","tb9399","NoQuestions",2,12,50,"bio","job",187.233,"NoResp",0
"751","tb9399","NoQuestions",2,13,12,"phys","ec",201.248,"NoResp",0
"752","tb9399","NoQuestions",2,14,59,"bio","name",216.262,"NoResp",0
"753","tb9399","NoQuestions",2,15,11,"phys","ec",234.275,"NoResp",0
"754","tb9399","NoQuestions",2,16,9,"phys","gender",252.292,"NoResp",0
"755","tb9399","NoQuestions",2,17,20,"phys","gender",267.306,"NoResp",0
"756","tb9399","NoQuestions",2,18,53,"bio","job",284.326,"NoResp",0
"757","tb9399","NoQuestions",3,1,8,"phys","gender",11.064,"NoResp",0
"758","tb9399","NoQuestions",3,2,1,"phys","ec",27.068,"NoResp",0
"759","tb9399","NoQuestions",3,3,43,"bio","name",41.083,"NoResp",0
"760","tb9399","NoQuestions",3,4,30,"phys","ec",59.102,"NoResp",0
"761","tb9399","NoQuestions",3,5,47,"bio","job",74.11,"NoResp",0
"762","tb9399","NoQuestions",3,6,72,"bio","place",89.121,"NoResp",0
"763","tb9399","NoQuestions",3,7,28,"phys","gender",103.136,"NoResp",0
"764","tb9399","NoQuestions",3,8,56,"bio","place",118.147,"NoResp",0
"765","tb9399","NoQuestions",3,9,71,"bio","job",135.167,"NoResp",0
"766","tb9399","NoQuestions",3,10,54,"bio","name",152.187,"NoResp",0
"767","tb9399","NoQuestions",3,11,37,"bio","place",170.207,"NoResp",0
"768","tb9399","NoQuestions",3,12,21,"phys","ec",184.222,"NoResp",0
"769","tb9399","NoQuestions",3,13,5,"phys","gender",199.232,"NoResp",0
"770","tb9399","NoQuestions",3,14,61,"bio","job",216.253,"NoResp",0
"771","tb9399","NoQuestions",3,15,3,"phys","race",232.277,"NoResp",0
"772","tb9399","NoQuestions",3,16,48,"bio","name",250.293,"NoResp",0
"773","tb9399","NoQuestions",3,17,29,"phys","race",267.313,"NoResp",0
"774","tb9399","NoQuestions",3,18,24,"phys","race",283.338,"NoResp",0
"775","tb9399","NoQuestions",4,1,4,"phys","race",11.069,"NoResp",0
"776","tb9399","NoQuestions",4,2,36,"phys","race",29.086,"NoResp",0
"777","tb9399","NoQuestions",4,3,40,"bio","name",46.107,"NoResp",0
"778","tb9399","NoQuestions",4,4,44,"bio","place",64.126,"NoResp",0
"779","tb9399","NoQuestions",4,5,62,"bio","job",81.146,"NoResp",0
"780","tb9399","NoQuestions",4,6,31,"phys","gender",96.154,"NoResp",0
"781","tb9399","NoQuestions",4,7,58,"bio","job",111.165,"NoResp",0
"782","tb9399","NoQuestions",4,8,66,"bio","job",128.185,"NoResp",0
"783","tb9399","NoQuestions",4,9,10,"phys","ec",143.196,"NoResp",0
"784","tb9399","NoQuestions",4,10,67,"bio","place",159.22,"NoResp",0
"785","tb9399","NoQuestions",4,11,16,"phys","gender",176.24,"NoResp",0
"786","tb9399","NoQuestions",4,12,52,"bio","place",192.251,"NoResp",0
"787","tb9399","NoQuestions",4,13,32,"phys","ec",206.266,"NoResp",0
"788","tb9399","NoQuestions",4,14,34,"phys","race",220.28,"NoResp",0
"789","tb9399","NoQuestions",4,15,2,"phys","gender",235.288,"NoResp",0
"790","tb9399","NoQuestions",4,16,6,"phys","ec",249.306,"NoResp",0
"791","tb9399","NoQuestions",4,17,38,"bio","name",267.319,"NoResp",0
"792","tb9399","NoQuestions",4,18,57,"bio","name",283.343,"NoResp",0
"793","tb9399","Questions",1,1,33,"phys","ec",11.064,"Yes",1.983
"794","tb9399","Questions",1,2,50,"bio","name",27.084,"Yes",0.868
"795","tb9399","Questions",1,3,66,"bio","job",44.105,"Yes",0.89
"796","tb9399","Questions",1,4,61,"bio","place",62.124,"Yes",1.686
"797","tb9399","Questions",1,5,43,"bio","job",76.136,"Yes",0.885
"798","tb9399","Questions",1,6,18,"phys","gender",93.159,"Yes",0.764
"799","tb9399","Questions",1,7,6,"phys","gender",110.179,"Yes",1.324
"800","tb9399","Questions",1,8,71,"bio","place",125.19,"Yes",0.901
"801","tb9399","Questions",1,9,20,"phys","ec",140.201,"Yes",3.671
"802","tb9399","Questions",1,10,39,"bio","job",154.216,"Yes",0.903
"803","tb9399","Questions",1,11,44,"bio","name",168.231,"Yes",1.561
"804","tb9399","Questions",1,12,8,"phys","gender",183.242,"Yes",3.288
"805","tb9399","Questions",1,13,24,"phys","race",198.25,"Yes",0.867
"806","tb9399","Questions",1,14,14,"phys","race",216.266,"Yes",1.157
"807","tb9399","Questions",1,15,10,"phys","race",234.283,"Yes",0.567
"808","tb9399","Questions",1,16,57,"bio","name",251.303,"Yes",1.378
"809","tb9399","Questions",1,17,65,"bio","place",267.327,"Yes",2.26
"810","tb9399","Questions",1,18,17,"phys","ec",283.334,"Yes",1.453
"811","tb9399","Questions",2,1,11,"phys","race",11.074,"Yes",1.425
"812","tb9399","Questions",2,2,40,"bio","job",28.094,"NoResp",0
"813","tb9399","Questions",2,3,15,"phys","ec",45.115,"Yes",5.582
"814","tb9399","Questions",2,4,72,"bio","job",60.126,"Yes",1.607
"815","tb9399","Questions",2,5,13,"phys","gender",77.146,"Yes",0.99
"816","tb9399","Questions",2,6,68,"bio","place",95.166,"Yes",0.856
"817","tb9399","Questions",2,7,19,"phys","race",111.17,"Yes",0.892
"818","tb9399","Questions",2,8,32,"phys","ec",127.196,"Yes",1.315
"819","tb9399","Questions",2,9,27,"phys","gender",142.204,"Yes",1.591
"820","tb9399","Questions",2,10,55,"bio","place",158.228,"Yes",1.702
"821","tb9399","Questions",2,11,62,"bio","name",173.239,"Yes",0.569
"822","tb9399","Questions",2,12,54,"bio","name",187.254,"Yes",0.894
"823","tb9399","Questions",2,13,4,"phys","gender",203.281,"Yes",0.761
"824","tb9399","Questions",2,14,69,"bio","place",221.294,"Yes",1.519
"825","tb9399","Questions",2,15,7,"phys","race",235.309,"Yes",1.074
"826","tb9399","Questions",2,16,60,"bio","job",249.327,"Yes",1
"827","tb9399","Questions",2,17,45,"bio","name",266.347,"Yes",1.323
"828","tb9399","Questions",2,18,28,"phys","ec",284.361,"Yes",2.069
"829","tb9399","Questions",3,1,49,"bio","place",11.061,"Yes",0.89
"830","tb9399","Questions",3,2,63,"bio","place",25.076,"Yes",1.812
"831","tb9399","Questions",3,3,31,"phys","gender",43.093,"Yes",0.882
"832","tb9399","Questions",3,4,9,"phys","gender",59.12,"Yes",1.349
"833","tb9399","Questions",3,5,34,"phys","ec",74.131,"Yes",1.069
"834","tb9399","Questions",3,6,37,"bio","job",91.151,"Yes",0.752
"835","tb9399","Questions",3,7,2,"phys","ec",109.164,"Yes",1.043
"836","tb9399","Questions",3,8,30,"phys","race",124.179,"Yes",0.734
"837","tb9399","Questions",3,9,67,"bio","name",141.199,"Yes",1.021
"838","tb9399","Questions",3,10,48,"bio","name",158.219,"Yes",1.094
"839","tb9399","Questions",3,11,64,"bio","job",173.227,"Yes",1.306
"840","tb9399","Questions",3,12,1,"phys","race",190.247,"Yes",1
"841","tb9399","Questions",3,13,59,"bio","job",204.265,"Yes",2.006
"842","tb9399","Questions",3,14,52,"bio","name",222.278,"Yes",0.544
"843","tb9399","Questions",3,15,53,"bio","place",238.305,"Yes",1.842
"844","tb9399","Questions",3,16,22,"phys","gender",253.313,"Yes",1.998
"845","tb9399","Questions",3,17,16,"phys","race",269.34,"Yes",0.812
"846","tb9399","Questions",3,18,36,"phys","ec",283.355,"Yes",1
"847","tb9399","Questions",4,1,3,"phys","race",11.072,"Yes",0.555
"848","tb9399","Questions",4,2,21,"phys","gender",27.08,"Yes",2.222
"849","tb9399","Questions",4,3,38,"bio","name",42.09,"Yes",1.258
"850","tb9399","Questions",4,4,23,"phys","race",58.097,"Yes",1.204
"851","tb9399","Questions",4,5,41,"bio","job",74.121,"Yes",1.337
"852","tb9399","Questions",4,6,58,"bio","job",91.142,"Yes",1.42
"853","tb9399","Questions",4,7,25,"phys","gender",106.153,"Yes",1.242
"854","tb9399","Questions",4,8,70,"bio","place",122.176,"Yes",2.932
"855","tb9399","Questions",4,9,51,"bio","job",139.197,"Yes",0.678
"856","tb9399","Questions",4,10,5,"phys","race",156.217,"Yes",3.723
"857","tb9399","Questions",4,11,12,"phys","gender",174.233,"Yes",1.625
"858","tb9399","Questions",4,12,42,"bio","name",191.254,"Yes",2.508
"859","tb9399","Questions",4,13,56,"bio","place",205.268,"Yes",2.143
"860","tb9399","Questions",4,14,29,"phys","ec",220.283,"Yes",0.775
"861","tb9399","Questions",4,15,47,"bio","name",234.295,"Yes",1.583
"862","tb9399","Questions",4,16,35,"phys","ec",249.305,"Yes",1.197
"863","tb9399","Questions",4,17,26,"phys","ec",267.321,"Yes",1.534
"864","tb9399","Questions",4,18,46,"bio","place",285.338,"Yes",1.261
"865","tb9430","NoQuestions",1,1,44,"bio","place",11.062,"NoResp",0
"866","tb9430","NoQuestions",1,2,4,"phys","ec",29.078,"NoResp",0
"867","tb9430","NoQuestions",1,3,57,"bio","name",43.093,"NoResp",0
"868","tb9430","NoQuestions",1,4,66,"bio","job",61.11,"NoResp",0
"869","tb9430","NoQuestions",1,5,2,"phys","race",76.124,"NoResp",0
"870","tb9430","NoQuestions",1,6,52,"bio","name",91.131,"NoResp",0
"871","tb9430","NoQuestions",1,7,16,"phys","race",107.159,"NoResp",0
"872","tb9430","NoQuestions",1,8,38,"bio","place",124.179,"NoResp",0
"873","tb9430","NoQuestions",1,9,67,"bio","name",138.194,"NoResp",0
"874","tb9430","NoQuestions",1,10,10,"phys","gender",155.214,"NoResp",0
"875","tb9430","NoQuestions",1,11,62,"bio","place",169.229,"NoResp",0
"876","tb9430","NoQuestions",1,12,34,"phys","gender",185.249,"NoResp",0
"877","tb9430","NoQuestions",1,13,32,"phys","race",200.261,"NoResp",0
"878","tb9430","NoQuestions",1,14,58,"bio","job",218.277,"NoResp",0
"879","tb9430","NoQuestions",1,15,31,"phys","ec",235.297,"NoResp",0
"880","tb9430","NoQuestions",1,16,36,"phys","gender",250.308,"NoResp",0
"881","tb9430","NoQuestions",1,17,40,"bio","job",266.332,"NoResp",0
"882","tb9430","NoQuestions",1,18,6,"phys","ec",283.355,"NoResp",0
"883","tb9430","NoQuestions",2,1,25,"phys","race",11.073,"NoResp",0
"884","tb9430","NoQuestions",2,2,33,"phys","race",26.081,"NoResp",0
"885","tb9430","NoQuestions",2,3,13,"phys","race",43.104,"NoResp",0
"886","tb9430","NoQuestions",2,4,55,"bio","name",61.117,"NoResp",0
"887","tb9430","NoQuestions",2,5,22,"phys","ec",78.138,"NoResp",0
"888","tb9430","NoQuestions",2,6,51,"bio","job",92.152,"NoResp",0
"889","tb9430","NoQuestions",2,7,18,"phys","gender",107.163,"NoResp",0
"890","tb9430","NoQuestions",2,8,41,"bio","name",124.183,"NoResp",0
"891","tb9430","NoQuestions",2,9,17,"phys","ec",140.191,"NoResp",0
"892","tb9430","NoQuestions",2,10,64,"bio","job",158.207,"NoResp",0
"893","tb9430","NoQuestions",2,11,68,"bio","place",176.224,"NoResp",0
"894","tb9430","NoQuestions",2,12,14,"phys","gender",192.231,"NoResp",0
"895","tb9430","NoQuestions",2,13,49,"bio","job",208.255,"NoResp",0
"896","tb9430","NoQuestions",2,14,39,"bio","place",222.273,"NoResp",0
"897","tb9430","NoQuestions",2,15,63,"bio","name",236.287,"NoResp",0
"898","tb9430","NoQuestions",2,16,15,"phys","gender",253.308,"NoResp",0
"899","tb9430","NoQuestions",2,17,7,"phys","ec",269.332,"NoResp",0
"900","tb9430","NoQuestions",2,18,42,"bio","place",284.343,"NoResp",0
"901","tb9430","NoQuestions",3,1,24,"phys","race",11.067,"NoResp",0
"902","tb9430","NoQuestions",3,2,48,"bio","job",27.078,"NoResp",0
"903","tb9430","NoQuestions",3,3,28,"phys","ec",41.093,"NoResp",0
"904","tb9430","NoQuestions",3,4,30,"phys","ec",56.1,"NoResp",0
"905","tb9430","NoQuestions",3,5,43,"bio","job",74.117,"NoResp",0
"906","tb9430","NoQuestions",3,6,54,"bio","name",91.137,"NoResp",0
"907","tb9430","NoQuestions",3,7,61,"bio","place",106.148,"NoResp",0
"908","tb9430","NoQuestions",3,8,8,"phys","gender",123.169,"NoResp",0
"909","tb9430","NoQuestions",3,9,47,"bio","place",138.179,"NoResp",0
"910","tb9430","NoQuestions",3,10,1,"phys","race",156.196,"NoResp",0
"911","tb9430","NoQuestions",3,11,3,"phys","gender",174.212,"NoResp",0
"912","tb9430","NoQuestions",3,12,56,"bio","name",188.227,"NoResp",0
"913","tb9430","NoQuestions",3,13,71,"bio","place",204.234,"NoResp",0
"914","tb9430","NoQuestions",3,14,21,"phys","gender",221.254,"NoResp",0
"915","tb9430","NoQuestions",3,15,37,"bio","job",238.275,"NoResp",0
"916","tb9430","NoQuestions",3,16,72,"bio","name",254.302,"NoResp",0
"917","tb9430","NoQuestions",3,17,29,"phys","ec",269.31,"NoResp",0
"918","tb9430","NoQuestions",3,18,5,"phys","race",285.337,"NoResp",0
"919","tb9430","NoQuestions",4,1,20,"phys","race",11.061,"NoResp",0
"920","tb9430","NoQuestions",4,2,11,"phys","gender",28.065,"NoResp",0
"921","tb9430","NoQuestions",4,3,69,"bio","name",45.085,"NoResp",0
"922","tb9430","NoQuestions",4,4,12,"phys","gender",62.106,"NoResp",0
"923","tb9430","NoQuestions",4,5,70,"bio","job",77.117,"NoResp",0
"924","tb9430","NoQuestions",4,6,9,"phys","race",95.136,"NoResp",0
"925","tb9430","NoQuestions",4,7,50,"bio","place",110.147,"NoResp",0
"926","tb9430","NoQuestions",4,8,45,"bio","place",126.171,"NoResp",0
"927","tb9430","NoQuestions",4,9,27,"phys","ec",141.179,"NoResp",0
"928","tb9430","NoQuestions",4,10,65,"bio","name",157.19,"NoResp",0
"929","tb9430","NoQuestions",4,11,53,"bio","name",174.207,"NoResp",0
"930","tb9430","NoQuestions",4,12,60,"bio","place",189.221,"NoResp",0
"931","tb9430","NoQuestions",4,13,35,"phys","ec",203.235,"NoResp",0
"932","tb9430","NoQuestions",4,14,26,"phys","race",219.239,"NoResp",0
"933","tb9430","NoQuestions",4,15,46,"bio","job",233.254,"NoResp",0
"934","tb9430","NoQuestions",4,16,19,"phys","ec",251.274,"NoResp",0
"935","tb9430","NoQuestions",4,17,59,"bio","job",267.278,"NoResp",0
"936","tb9430","NoQuestions",4,18,23,"phys","gender",281.293,"NoResp",0
"937","tb9430","Questions",1,1,33,"phys","race",11.069,"Yes",1.661
"938","tb9430","Questions",1,2,66,"bio","place",27.077,"Yes",1.579
"939","tb9430","Questions",1,3,24,"phys","ec",41.091,"Yes",1.341
"940","tb9430","Questions",1,4,20,"phys","gender",57.118,"Yes",1.338
"941","tb9430","Questions",1,5,8,"phys","race",73.122,"Yes",1.239
"942","tb9430","Questions",1,6,43,"bio","job",91.142,"Yes",1.478
"943","tb9430","Questions",1,7,50,"bio","place",109.156,"Yes",1.143
"944","tb9430","Questions",1,8,17,"phys","race",124.167,"Yes",1.104
"945","tb9430","Questions",1,9,10,"phys","gender",139.181,"Yes",1.261
"946","tb9430","Questions",1,10,6,"phys","ec",156.201,"Yes",1.251
"947","tb9430","Questions",1,11,57,"bio","name",170.216,"Yes",1.216
"948","tb9430","Questions",1,12,65,"bio","job",187.236,"Yes",1.165
"949","tb9430","Questions",1,13,39,"bio","job",204.256,"Yes",1.199
"950","tb9430","Questions",1,14,71,"bio","name",220.26,"Yes",1.162
"951","tb9430","Questions",1,15,44,"bio","name",237.28,"Yes",1.288
"952","tb9430","Questions",1,16,18,"phys","ec",252.291,"Yes",1.168
"953","tb9430","Questions",1,17,14,"phys","gender",270.308,"Yes",1.05
"954","tb9430","Questions",1,18,61,"bio","place",285.319,"Yes",1.305
"955","tb9430","Questions",2,1,56,"bio","place",11.072,"Yes",1.294
"956","tb9430","Questions",2,2,3,"phys","gender",26.083,"Yes",1.057
"957","tb9430","Questions",2,3,35,"phys","ec",44.1,"Yes",1.186
"958","tb9430","Questions",2,4,70,"bio","job",62.12,"Yes",1.04
"959","tb9430","Questions",2,5,21,"phys","gender",79.14,"Yes",1.102
"960","tb9430","Questions",2,6,12,"phys","race",93.155,"Yes",1
"961","tb9430","Questions",2,7,46,"bio","place",109.159,"Yes",1.108
"962","tb9430","Questions",2,8,42,"bio","job",124.173,"Yes",1.228
"963","tb9430","Questions",2,9,23,"phys","gender",142.189,"Yes",1.051
"964","tb9430","Questions",2,10,5,"phys","ec",159.209,"Yes",1.13
"965","tb9430","Questions",2,11,41,"bio","name",176.23,"Yes",1.179
"966","tb9430","Questions",2,12,29,"phys","race",193.25,"Yes",1.13
"967","tb9430","Questions",2,13,38,"bio","job",208.258,"Yes",1.04
"968","tb9430","Questions",2,14,51,"bio","place",222.273,"Yes",1.205
"969","tb9430","Questions",2,15,58,"bio","name",236.287,"Yes",1.137
"970","tb9430","Questions",2,16,25,"phys","ec",252.314,"Yes",1.123
"971","tb9430","Questions",2,17,47,"bio","name",268.318,"Yes",1.174
"972","tb9430","Questions",2,18,26,"phys","race",284.342,"Yes",1.276
"973","tb9430","Questions",3,1,36,"phys","gender",11.067,"Yes",0.945
"974","tb9430","Questions",3,2,59,"bio","job",27.091,"Yes",1.247
"975","tb9430","Questions",3,3,64,"bio","place",45.108,"Yes",1.058
"976","tb9430","Questions",3,4,53,"bio","job",63.127,"Yes",1.158
"977","tb9430","Questions",3,5,16,"phys","gender",80.148,"Yes",1.073
"978","tb9430","Questions",3,6,22,"phys","gender",96.151,"Yes",1.054
"979","tb9430","Questions",3,7,30,"phys","race",110.166,"Yes",1.105
"980","tb9430","Questions",3,8,48,"bio","place",128.186,"Yes",0.986
"981","tb9430","Questions",3,9,2,"phys","ec",145.206,"Yes",1.141
"982","tb9430","Questions",3,10,9,"phys","race",160.214,"Yes",0.994
"983","tb9430","Questions",3,11,31,"phys","race",175.225,"Yes",1.087
"984","tb9430","Questions",3,12,52,"bio","job",190.236,"Yes",1.033
"985","tb9430","Questions",3,13,63,"bio","name",205.25,"Yes",1
"986","tb9430","Questions",3,14,34,"phys","ec",219.265,"NoResp",0
"987","tb9430","Questions",3,15,1,"phys","ec",235.269,"Yes",1.162
"988","tb9430","Questions",3,16,49,"bio","place",249.284,"Yes",1.099
"989","tb9430","Questions",3,17,67,"bio","name",266.304,"Yes",1.05
"990","tb9430","Questions",3,18,37,"bio","name",283.324,"Yes",0.96
"991","tb9430","Questions",4,1,54,"bio","name",11.068,"Yes",0.9
"992","tb9430","Questions",4,2,62,"bio","name",26.083,"Yes",1.051
"993","tb9430","Questions",4,3,19,"phys","ec",41.09,"Yes",0.846
"994","tb9430","Questions",4,4,7,"phys","race",58.11,"Yes",1.1
"995","tb9430","Questions",4,5,13,"phys","gender",75.131,"Yes",1.067
"996","tb9430","Questions",4,6,40,"bio","place",90.142,"Yes",1.125
"997","tb9430","Questions",4,7,15,"phys","race",106.169,"Yes",1.492
"998","tb9430","Questions",4,8,32,"phys","ec",122.176,"Yes",0.836
"999","tb9430","Questions",4,9,27,"phys","ec",137.187,"Yes",1.345
"1000","tb9430","Questions",4,10,28,"phys","gender",151.202,"Yes",0.915
"1001","tb9430","Questions",4,11,69,"bio","place",169.215,"Yes",1.071
"1002","tb9430","Questions",4,12,11,"phys","gender",183.233,"Yes",1.134
"1003","tb9430","Questions",4,13,55,"bio","job",201.246,"Yes",1.118
"1004","tb9430","Questions",4,14,4,"phys","race",217.273,"Yes",1.062
"1005","tb9430","Questions",4,15,72,"bio","place",234.293,"Yes",1.123
"1006","tb9430","Questions",4,16,68,"bio","job",248.305,"Yes",1.198
"1007","tb9430","Questions",4,17,45,"bio","job",266.322,"Yes",1.068
"1008","tb9430","Questions",4,18,60,"bio","name",283.342,"Yes",1.111
"1009","tb9488","NoQuestions",1,1,19,"bio","job",11.071,"NoResp",0
"1010","tb9488","NoQuestions",1,2,27,"bio","place",26.082,"NoResp",0
"1011","tb9488","NoQuestions",1,3,49,"phys","race",44.099,"NoResp",0
"1012","tb9488","NoQuestions",1,4,43,"phys","gender",60.123,"NoResp",0
"1013","tb9488","NoQuestions",1,5,13,"bio","place",77.143,"NoResp",0
"1014","tb9488","NoQuestions",1,6,53,"phys","ec",91.158,"NoResp",0
"1015","tb9488","NoQuestions",1,7,51,"phys","ec",106.169,"NoResp",0
"1016","tb9488","NoQuestions",1,8,28,"bio","name",121.18,"NoResp",0
"1017","tb9488","NoQuestions",1,9,6,"bio","job",137.203,"NoResp",0
"1018","tb9488","NoQuestions",1,10,69,"phys","ec",153.227,"NoResp",0
"1019","tb9488","NoQuestions",1,11,32,"bio","name",170.248,"NoResp",0
"1020","tb9488","NoQuestions",1,12,5,"bio","name",188.264,"NoResp",0
"1021","tb9488","NoQuestions",1,13,3,"bio","job",206.281,"NoResp",0
"1022","tb9488","NoQuestions",1,14,54,"phys","gender",220.295,"NoResp",0
"1023","tb9488","NoQuestions",1,15,50,"phys","race",237.316,"NoResp",0
"1024","tb9488","NoQuestions",1,16,15,"bio","place",254.336,"NoResp",0
"1025","tb9488","NoQuestions",1,17,61,"phys","race",269.347,"NoResp",0
"1026","tb9488","NoQuestions",1,18,58,"phys","gender",285.371,"NoResp",0
"1027","tb9488","NoQuestions",2,1,18,"bio","job",11.077,"NoResp",0
"1028","tb9488","NoQuestions",2,2,65,"phys","race",27.084,"NoResp",0
"1029","tb9488","NoQuestions",2,3,44,"phys","gender",41.099,"NoResp",0
"1030","tb9488","NoQuestions",2,4,12,"bio","place",55.113,"NoResp",0
"1031","tb9488","NoQuestions",2,5,39,"phys","race",70.124,"NoResp",0
"1032","tb9488","NoQuestions",2,6,25,"bio","name",86.148,"NoResp",0
"1033","tb9488","NoQuestions",2,7,57,"phys","race",103.168,"NoResp",0
"1034","tb9488","NoQuestions",2,8,7,"bio","place",121.185,"NoResp",0
"1035","tb9488","NoQuestions",2,9,1,"bio","name",138.205,"NoResp",0
"1036","tb9488","NoQuestions",2,10,35,"bio","place",154.229,"NoResp",0
"1037","tb9488","NoQuestions",2,11,66,"phys","ec",170.253,"NoResp",0
"1038","tb9488","NoQuestions",2,12,36,"bio","job",187.273,"NoResp",0
"1039","tb9488","NoQuestions",2,13,60,"phys","ec",201.288,"NoResp",0
"1040","tb9488","NoQuestions",2,14,11,"bio","name",216.299,"NoResp",0
"1041","tb9488","NoQuestions",2,15,41,"phys","ec",234.315,"NoResp",0
"1042","tb9488","NoQuestions",2,16,37,"phys","gender",252.332,"NoResp",0
"1043","tb9488","NoQuestions",2,17,64,"phys","gender",267.343,"NoResp",0
"1044","tb9488","NoQuestions",2,18,20,"bio","job",284.363,"NoResp",0
"1045","tb9488","NoQuestions",3,1,71,"phys","gender",11.065,"NoResp",0
"1046","tb9488","NoQuestions",3,2,45,"phys","ec",27.072,"NoResp",0
"1047","tb9488","NoQuestions",3,3,29,"bio","name",41.087,"NoResp",0
"1048","tb9488","NoQuestions",3,4,59,"phys","ec",59.104,"NoResp",0
"1049","tb9488","NoQuestions",3,5,23,"bio","job",74.115,"NoResp",0
"1050","tb9488","NoQuestions",3,6,14,"bio","place",89.126,"NoResp",0
"1051","tb9488","NoQuestions",3,7,56,"phys","gender",103.14,"NoResp",0
"1052","tb9488","NoQuestions",3,8,17,"bio","place",118.151,"NoResp",0
"1053","tb9488","NoQuestions",3,9,24,"bio","job",135.172,"NoResp",0
"1054","tb9488","NoQuestions",3,10,33,"bio","name",152.192,"NoResp",0
"1055","tb9488","NoQuestions",3,11,34,"bio","place",170.208,"NoResp",0
"1056","tb9488","NoQuestions",3,12,63,"phys","ec",184.223,"NoResp",0
"1057","tb9488","NoQuestions",3,13,47,"phys","gender",199.234,"NoResp",0
"1058","tb9488","NoQuestions",3,14,10,"bio","job",216.254,"NoResp",0
"1059","tb9488","NoQuestions",3,15,62,"phys","race",232.278,"NoResp",0
"1060","tb9488","NoQuestions",3,16,9,"bio","name",250.295,"NoResp",0
"1061","tb9488","NoQuestions",3,17,55,"phys","race",267.315,"NoResp",0
"1062","tb9488","NoQuestions",3,18,48,"phys","race",283.339,"NoResp",0
"1063","tb9488","NoQuestions",4,1,40,"phys","race",11.073,"NoResp",0
"1064","tb9488","NoQuestions",4,2,72,"phys","race",29.089,"NoResp",0
"1065","tb9488","NoQuestions",4,3,4,"bio","name",46.109,"NoResp",0
"1066","tb9488","NoQuestions",4,4,8,"bio","place",64.126,"NoResp",0
"1067","tb9488","NoQuestions",4,5,26,"bio","job",81.146,"NoResp",0
"1068","tb9488","NoQuestions",4,6,67,"phys","gender",96.157,"NoResp",0
"1069","tb9488","NoQuestions",4,7,22,"bio","job",111.168,"NoResp",0
"1070","tb9488","NoQuestions",4,8,30,"bio","job",128.188,"NoResp",0
"1071","tb9488","NoQuestions",4,9,46,"phys","ec",143.199,"NoResp",0
"1072","tb9488","NoQuestions",4,10,31,"bio","place",159.223,"NoResp",0
"1073","tb9488","NoQuestions",4,11,52,"phys","gender",176.243,"NoResp",0
"1074","tb9488","NoQuestions",4,12,16,"bio","place",192.267,"NoResp",0
"1075","tb9488","NoQuestions",4,13,68,"phys","ec",206.282,"NoResp",0
"1076","tb9488","NoQuestions",4,14,70,"phys","race",220.297,"NoResp",0
"1077","tb9488","NoQuestions",4,15,38,"phys","gender",235.308,"NoResp",0
"1078","tb9488","NoQuestions",4,16,42,"phys","ec",249.322,"NoResp",0
"1079","tb9488","NoQuestions",4,17,2,"bio","name",267.339,"NoResp",0
"1080","tb9488","NoQuestions",4,18,21,"bio","name",283.363,"NoResp",0
"1081","tb9488","Questions",1,1,40,"phys","ec",11.065,"Yes",1.621
"1082","tb9488","Questions",1,2,19,"bio","name",27.088,"Yes",1.113
"1083","tb9488","Questions",1,3,36,"bio","job",44.109,"Yes",1.492
"1084","tb9488","Questions",1,4,4,"bio","place",62.125,"Yes",1.224
"1085","tb9488","Questions",1,5,32,"bio","job",76.14,"Yes",1.019
"1086","tb9488","Questions",1,6,55,"phys","gender",93.16,"Yes",1.344
"1087","tb9488","Questions",1,7,68,"phys","gender",110.18,"Yes",1.124
"1088","tb9488","Questions",1,8,18,"bio","place",125.191,"Yes",1.074
"1089","tb9488","Questions",1,9,49,"phys","ec",140.202,"Yes",1.74
"1090","tb9488","Questions",1,10,24,"bio","job",154.217,"Yes",1.134
"1091","tb9488","Questions",1,11,33,"bio","name",168.232,"Yes",1.222
"1092","tb9488","Questions",1,12,47,"phys","gender",183.259,"Yes",1.802
"1093","tb9488","Questions",1,13,64,"phys","race",198.27,"Yes",0.868
"1094","tb9488","Questions",1,14,63,"phys","race",216.287,"Yes",1.206
"1095","tb9488","Questions",1,15,43,"phys","race",234.303,"Yes",1
"1096","tb9488","Questions",1,16,26,"bio","name",251.323,"No",0.98
"1097","tb9488","Questions",1,17,9,"bio","place",267.347,"Yes",0.914
"1098","tb9488","Questions",1,18,51,"phys","ec",283.371,"Yes",1.035
"1099","tb9488","Questions",2,1,41,"phys","race",11.064,"Yes",1.19
"1100","tb9488","Questions",2,2,34,"bio","job",28.084,"Yes",0.972
"1101","tb9488","Questions",2,3,61,"phys","ec",45.104,"Yes",0.734
"1102","tb9488","Questions",2,4,10,"bio","job",60.115,"Yes",0.981
"1103","tb9488","Questions",2,5,71,"phys","gender",77.136,"Yes",0.899
"1104","tb9488","Questions",2,6,2,"bio","place",95.152,"Yes",0.928
"1105","tb9488","Questions",2,7,62,"phys","race",111.176,"Yes",1.461
"1106","tb9488","Questions",2,8,59,"phys","ec",127.2,"Yes",0.921
"1107","tb9488","Questions",2,9,48,"phys","gender",142.211,"Yes",2.145
"1108","tb9488","Questions",2,10,15,"bio","place",158.235,"No",1.807
"1109","tb9488","Questions",2,11,20,"bio","name",173.246,"Yes",1.851
"1110","tb9488","Questions",2,12,6,"bio","name",187.26,"Yes",1.672
"1111","tb9488","Questions",2,13,57,"phys","gender",203.284,"Yes",1.432
"1112","tb9488","Questions",2,14,22,"bio","place",221.301,"Yes",0.813
"1113","tb9488","Questions",2,15,39,"phys","race",235.316,"Yes",1.164
"1114","tb9488","Questions",2,16,11,"bio","job",249.33,"Yes",1.038
"1115","tb9488","Questions",2,17,5,"bio","name",266.35,"Yes",1.334
"1116","tb9488","Questions",2,18,65,"phys","ec",284.367,"Yes",1.717
"1117","tb9488","Questions",3,1,21,"bio","place",11.074,"No",1.052
"1118","tb9488","Questions",3,2,25,"bio","place",25.088,"Yes",1.848
"1119","tb9488","Questions",3,3,69,"phys","gender",43.105,"Yes",2.428
"1120","tb9488","Questions",3,4,44,"phys","gender",59.128,"Yes",1.908
"1121","tb9488","Questions",3,5,56,"phys","ec",74.139,"Yes",1.34
"1122","tb9488","Questions",3,6,3,"bio","job",91.16,"Yes",0.958
"1123","tb9488","Questions",3,7,42,"phys","ec",109.176,"Yes",0.832
"1124","tb9488","Questions",3,8,54,"phys","race",124.187,"Yes",1.591
"1125","tb9488","Questions",3,9,14,"bio","name",141.207,"Yes",1.541
"1126","tb9488","Questions",3,10,8,"bio","name",158.228,"Yes",1.061
"1127","tb9488","Questions",3,11,30,"bio","job",173.239,"Yes",1.065
"1128","tb9488","Questions",3,12,60,"phys","race",190.259,"Yes",2.024
"1129","tb9488","Questions",3,13,7,"bio","job",204.274,"Yes",0.891
"1130","tb9488","Questions",3,14,29,"bio","name",222.29,"Yes",1.029
"1131","tb9488","Questions",3,15,35,"bio","place",238.314,"Yes",1.913
"1132","tb9488","Questions",3,16,46,"phys","gender",253.325,"Yes",1.807
"1133","tb9488","Questions",3,17,50,"phys","race",269.349,"Yes",1.02
"1134","tb9488","Questions",3,18,53,"phys","ec",283.364,"Yes",0.76
"1135","tb9488","Questions",4,1,58,"phys","race",11.067,"Yes",1.486
"1136","tb9488","Questions",4,2,67,"phys","gender",27.091,"Yes",0.719
"1137","tb9488","Questions",4,3,23,"bio","name",42.102,"Yes",1.497
"1138","tb9488","Questions",4,4,38,"phys","race",58.126,"Yes",1.182
"1139","tb9488","Questions",4,5,16,"bio","job",74.15,"Yes",1.107
"1140","tb9488","Questions",4,6,12,"bio","job",91.17,"Yes",1.142
"1141","tb9488","Questions",4,7,72,"phys","gender",106.181,"Yes",1.418
"1142","tb9488","Questions",4,8,27,"bio","place",122.205,"Yes",1.249
"1143","tb9488","Questions",4,9,31,"bio","job",139.225,"Yes",1.117
"1144","tb9488","Questions",4,10,45,"phys","race",156.245,"Yes",1.217
"1145","tb9488","Questions",4,11,52,"phys","gender",174.262,"Yes",1.075
"1146","tb9488","Questions",4,12,17,"bio","name",191.282,"Yes",1.617
"1147","tb9488","Questions",4,13,13,"bio","place",205.297,"Yes",1.184
"1148","tb9488","Questions",4,14,37,"phys","ec",220.307,"Yes",1.06
"1149","tb9488","Questions",4,15,1,"bio","name",234.322,"No",1.611
"1150","tb9488","Questions",4,16,70,"phys","ec",249.333,"Yes",1.137
"1151","tb9488","Questions",4,17,66,"phys","ec",267.35,"Yes",1.215
"1152","tb9488","Questions",4,18,28,"bio","place",285.366,"Yes",1.073
"1153","tb9516","NoQuestions",1,1,68,"phys","gender",11.077,"NoResp",0
"1154","tb9516","NoQuestions",1,2,72,"phys","gender",26.085,"NoResp",0
"1155","tb9516","NoQuestions",1,3,42,"phys","ec",41.096,"NoResp",0
"1156","tb9516","NoQuestions",1,4,38,"phys","gender",57.123,"NoResp",0
"1157","tb9516","NoQuestions",1,5,52,"phys","ec",71.138,"NoResp",0
"1158","tb9516","NoQuestions",1,6,67,"phys","ec",89.151,"NoResp",0
"1159","tb9516","NoQuestions",1,7,16,"bio","name",107.168,"NoResp",0
"1160","tb9516","NoQuestions",1,8,30,"bio","place",123.175,"NoResp",0
"1161","tb9516","NoQuestions",1,9,8,"bio","name",138.186,"NoResp",0
"1162","tb9516","NoQuestions",1,10,40,"phys","race",152.201,"NoResp",0
"1163","tb9516","NoQuestions",1,11,26,"bio","place",168.224,"NoResp",0
"1164","tb9516","NoQuestions",1,12,2,"bio","job",185.245,"NoResp",0
"1165","tb9516","NoQuestions",1,13,21,"bio","job",202.265,"NoResp",0
"1166","tb9516","NoQuestions",1,14,46,"phys","race",216.283,"NoResp",0
"1167","tb9516","NoQuestions",1,15,22,"bio","place",231.291,"NoResp",0
"1168","tb9516","NoQuestions",1,16,70,"phys","race",247.317,"NoResp",0
"1169","tb9516","NoQuestions",1,17,31,"bio","name",264.338,"NoResp",0
"1170","tb9516","NoQuestions",1,18,4,"bio","job",281.358,"NoResp",0
"1171","tb9516","NoQuestions",2,1,15,"bio","name",11.074,"NoResp",0
"1172","tb9516","NoQuestions",2,2,28,"bio","job",27.081,"NoResp",0
"1173","tb9516","NoQuestions",2,3,69,"phys","race",43.105,"NoResp",0
"1174","tb9516","NoQuestions",2,4,43,"phys","ec",59.116,"NoResp",0
"1175","tb9516","NoQuestions",2,5,27,"bio","place",77.129,"NoResp",0
"1176","tb9516","NoQuestions",2,6,13,"bio","name",94.149,"NoResp",0
"1177","tb9516","NoQuestions",2,7,6,"bio","job",109.16,"NoResp",0
"1178","tb9516","NoQuestions",2,8,53,"phys","gender",126.18,"NoResp",0
"1179","tb9516","NoQuestions",2,9,19,"bio","place",143.201,"NoResp",0
"1180","tb9516","NoQuestions",2,10,32,"bio","job",157.215,"NoResp",0
"1181","tb9516","NoQuestions",2,11,54,"phys","gender",175.235,"NoResp",0
"1182","tb9516","NoQuestions",2,12,61,"phys","ec",193.248,"NoResp",0
"1183","tb9516","NoQuestions",2,13,50,"phys","race",208.259,"NoResp",0
"1184","tb9516","NoQuestions",2,14,49,"phys","ec",225.279,"NoResp",0
"1185","tb9516","NoQuestions",2,15,5,"bio","place",240.294,"NoResp",0
"1186","tb9516","NoQuestions",2,16,58,"phys","gender",256.298,"NoResp",0
"1187","tb9516","NoQuestions",2,17,51,"phys","race",270.312,"NoResp",0
"1188","tb9516","NoQuestions",2,18,3,"bio","name",284.327,"NoResp",0
"1189","tb9516","NoQuestions",3,1,10,"bio","job",11.061,"NoResp",0
"1190","tb9516","NoQuestions",3,2,56,"phys","gender",26.075,"NoResp",0
"1191","tb9516","NoQuestions",3,3,48,"phys","race",41.083,"NoResp",0
"1192","tb9516","NoQuestions",3,4,23,"bio","name",58.103,"NoResp",0
"1193","tb9516","NoQuestions",3,5,34,"bio","job",74.11,"NoResp",0
"1194","tb9516","NoQuestions",3,6,17,"bio","name",88.125,"NoResp",0
"1195","tb9516","NoQuestions",3,7,71,"phys","ec",106.145,"NoResp",0
"1196","tb9516","NoQuestions",3,8,33,"bio","place",124.158,"NoResp",0
"1197","tb9516","NoQuestions",3,9,62,"phys","gender",141.178,"NoResp",0
"1198","tb9516","NoQuestions",3,10,59,"phys","race",155.193,"NoResp",0
"1199","tb9516","NoQuestions",3,11,29,"bio","place",169.211,"NoResp",0
"1200","tb9516","NoQuestions",3,12,45,"phys","gender",185.235,"NoResp",0
"1201","tb9516","NoQuestions",3,13,9,"bio","place",202.255,"NoResp",0
"1202","tb9516","NoQuestions",3,14,14,"bio","name",218.259,"NoResp",0
"1203","tb9516","NoQuestions",3,15,55,"phys","ec",234.286,"NoResp",0
"1204","tb9516","NoQuestions",3,16,47,"phys","race",249.294,"NoResp",0
"1205","tb9516","NoQuestions",3,17,63,"phys","ec",267.311,"NoResp",0
"1206","tb9516","NoQuestions",3,18,24,"bio","job",284.331,"NoResp",0
"1207","tb9516","NoQuestions",4,1,12,"bio","name",11.069,"NoResp",0
"1208","tb9516","NoQuestions",4,2,11,"bio","place",28.089,"NoResp",0
"1209","tb9516","NoQuestions",4,3,41,"phys","race",42.103,"NoResp",0
"1210","tb9516","NoQuestions",4,4,7,"bio","job",59.124,"NoResp",0
"1211","tb9516","NoQuestions",4,5,44,"phys","gender",77.14,"NoResp",0
"1212","tb9516","NoQuestions",4,6,20,"bio","name",92.154,"NoResp",0
"1213","tb9516","NoQuestions",4,7,57,"phys","ec",108.175,"NoResp",0
"1214","tb9516","NoQuestions",4,8,37,"phys","gender",124.185,"NoResp",0
"1215","tb9516","NoQuestions",4,9,39,"phys","race",140.21,"NoResp",0
"1216","tb9516","NoQuestions",4,10,66,"phys","ec",154.224,"NoResp",0
"1217","tb9516","NoQuestions",4,11,18,"bio","place",172.241,"NoResp",0
"1218","tb9516","NoQuestions",4,12,36,"bio","job",186.252,"NoResp",0
"1219","tb9516","NoQuestions",4,13,35,"bio","place",201.264,"NoResp",0
"1220","tb9516","NoQuestions",4,14,1,"bio","job",218.283,"NoResp",0
"1221","tb9516","NoQuestions",4,15,64,"phys","gender",236.3,"NoResp",0
"1222","tb9516","NoQuestions",4,16,60,"phys","ec",253.32,"NoResp",0
"1223","tb9516","NoQuestions",4,17,65,"phys","race",268.334,"NoResp",0
"1224","tb9516","NoQuestions",4,18,25,"bio","name",284.338,"NoResp",0
"1225","tb9516","Questions",1,1,55,"phys","gender",11.071,"Yes",1.224
"1226","tb9516","Questions",1,2,63,"phys","race",29.09,"Yes",1.525
"1227","tb9516","Questions",1,3,18,"bio","place",47.104,"Yes",2.345
"1228","tb9516","Questions",1,4,9,"bio","job",63.131,"Yes",3.808
"1229","tb9516","Questions",1,5,33,"bio","job",81.147,"Yes",1.702
"1230","tb9516","Questions",1,6,47,"phys","ec",98.167,"Yes",2.728
"1231","tb9516","Questions",1,7,24,"bio","job",115.187,"Yes",1.69
"1232","tb9516","Questions",1,8,4,"bio","name",130.195,"Yes",2.03
"1233","tb9516","Questions",1,9,43,"phys","ec",147.216,"Yes",1.806
"1234","tb9516","Questions",1,10,36,"bio","name",161.23,"Yes",1.409
"1235","tb9516","Questions",1,11,19,"bio","place",175.248,"Yes",6.247
"1236","tb9516","Questions",1,12,64,"phys","ec",192.265,"Yes",2.207
"1237","tb9516","Questions",1,13,32,"bio","place",207.276,"No",4.999
"1238","tb9516","Questions",1,14,40,"phys","race",222.29,"Yes",2.947
"1239","tb9516","Questions",1,15,49,"phys","gender",237.301,"Yes",2.273
"1240","tb9516","Questions",1,16,51,"phys","gender",251.316,"Yes",1.891
"1241","tb9516","Questions",1,17,26,"bio","name",267.34,"Yes",1.583
"1242","tb9516","Questions",1,18,68,"phys","race",283.344,"Yes",1.984
"1243","tb9516","Questions",2,1,7,"bio","place",11.063,"Yes",1.744
"1244","tb9516","Questions",2,2,69,"phys","race",26.074,"Yes",1.319
"1245","tb9516","Questions",2,3,30,"bio","name",44.091,"Yes",1.501
"1246","tb9516","Questions",2,4,54,"phys","race",59.102,"Yes",1.456
"1247","tb9516","Questions",2,5,53,"phys","ec",74.113,"Yes",1.766
"1248","tb9516","Questions",2,6,29,"bio","place",89.127,"Yes",1.813
"1249","tb9516","Questions",2,7,42,"phys","gender",105.147,"Yes",1.083
"1250","tb9516","Questions",2,8,50,"phys","ec",121.158,"Yes",1.424
"1251","tb9516","Questions",2,9,25,"bio","job",139.171,"Yes",1.668
"1252","tb9516","Questions",2,10,8,"bio","name",156.191,"Yes",1.705
"1253","tb9516","Questions",2,11,3,"bio","job",172.202,"No",2.198
"1254","tb9516","Questions",2,12,14,"bio","job",189.222,"Yes",1.99
"1255","tb9516","Questions",2,13,56,"phys","gender",206.242,"Yes",1.617
"1256","tb9516","Questions",2,14,44,"phys","ec",220.254,"Yes",1.81
"1257","tb9516","Questions",2,15,60,"phys","gender",234.272,"Yes",1.831
"1258","tb9516","Questions",2,16,35,"bio","name",252.285,"Yes",2.528
"1259","tb9516","Questions",2,17,46,"phys","race",268.312,"Yes",1.126
"1260","tb9516","Questions",2,18,21,"bio","place",282.327,"Yes",3.437
"1261","tb9516","Questions",3,1,38,"phys","race",11.063,"Yes",1.095
"1262","tb9516","Questions",3,2,72,"phys","ec",27.07,"Yes",2.012
"1263","tb9516","Questions",3,3,16,"bio","name",45.087,"Yes",2.859
"1264","tb9516","Questions",3,4,12,"bio","place",62.107,"No",2.021
"1265","tb9516","Questions",3,5,70,"phys","gender",79.127,"Yes",1.809
"1266","tb9516","Questions",3,6,13,"bio","name",94.138,"Yes",3.027
"1267","tb9516","Questions",3,7,1,"bio","job",110.162,"Yes",8.384
"1268","tb9516","Questions",3,8,45,"phys","race",127.182,"Yes",2.9
"1269","tb9516","Questions",3,9,58,"phys","ec",145.199,"Yes",1.966
"1270","tb9516","Questions",3,10,31,"bio","name",160.213,"Yes",1.573
"1271","tb9516","Questions",3,11,52,"phys","race",174.228,"Yes",1.619
"1272","tb9516","Questions",3,12,27,"bio","place",190.232,"Yes",1.503
"1273","tb9516","Questions",3,13,28,"bio","place",205.246,"Yes",1.501
"1274","tb9516","Questions",3,14,66,"phys","gender",223.262,"Yes",1.923
"1275","tb9516","Questions",3,15,17,"bio","job",239.287,"Yes",1.252
"1276","tb9516","Questions",3,16,67,"phys","gender",256.307,"Yes",2.082
"1277","tb9516","Questions",3,17,37,"phys","ec",270.322,"Yes",1.541
"1278","tb9516","Questions",3,18,23,"bio","job",285.329,"Yes",1.127
"1279","tb9516","Questions",4,1,57,"phys","race",11.069,"Yes",1.353
"1280","tb9516","Questions",4,2,65,"phys","ec",26.08,"Yes",1.117
"1281","tb9516","Questions",4,3,61,"phys","ec",43.101,"Yes",1.226
"1282","tb9516","Questions",4,4,6,"bio","name",59.125,"Yes",1.077
"1283","tb9516","Questions",4,5,62,"phys","gender",75.132,"Yes",1.958
"1284","tb9516","Questions",4,6,15,"bio","job",91.156,"Yes",3.153
"1285","tb9516","Questions",4,7,48,"phys","race",109.172,"Yes",2.063
"1286","tb9516","Questions",4,8,20,"bio","place",127.192,"Yes",2.27
"1287","tb9516","Questions",4,9,39,"phys","race",145.205,"Yes",2.195
"1288","tb9516","Questions",4,10,11,"bio","place",160.216,"Yes",1.939
"1289","tb9516","Questions",4,11,2,"bio","name",177.237,"Yes",1.771
"1290","tb9516","Questions",4,12,10,"bio","place",193.244,"Yes",3.017
"1291","tb9516","Questions",4,13,22,"bio","name",208.255,"Yes",1.332
"1292","tb9516","Questions",4,14,71,"phys","ec",222.27,"Yes",1.844
"1293","tb9516","Questions",4,15,41,"phys","gender",237.284,"Yes",1.206
"1294","tb9516","Questions",4,16,59,"phys","gender",254.304,"Yes",1.746
"1295","tb9516","Questions",4,17,34,"bio","job",268.316,"Yes",1.067
"1296","tb9516","Questions",4,18,5,"bio","job",285.336,"Yes",2.786
"1297","tb9555","NoQuestions",1,1,69,"phys","race",11.061,"NoResp",0
"1298","tb9555","NoQuestions",1,2,54,"phys","gender",29.077,"NoResp",0
"1299","tb9555","NoQuestions",1,3,49,"phys","race",47.094,"NoResp",0
"1300","tb9555","NoQuestions",1,4,28,"bio","job",64.114,"NoResp",0
"1301","tb9555","NoQuestions",1,5,50,"phys","ec",81.134,"NoResp",0
"1302","tb9555","NoQuestions",1,6,5,"bio","job",95.149,"NoResp",0
"1303","tb9555","NoQuestions",1,7,13,"bio","name",110.16,"NoResp",0
"1304","tb9555","NoQuestions",1,8,61,"phys","gender",126.184,"NoResp",0
"1305","tb9555","NoQuestions",1,9,27,"bio","name",142.194,"NoResp",0
"1306","tb9555","NoQuestions",1,10,15,"bio","name",159.211,"NoResp",0
"1307","tb9555","NoQuestions",1,11,19,"bio","place",175.219,"NoResp",0
"1308","tb9555","NoQuestions",1,12,53,"phys","ec",190.23,"NoResp",0
"1309","tb9555","NoQuestions",1,13,6,"bio","place",207.25,"NoResp",0
"1310","tb9555","NoQuestions",1,14,3,"bio","job",221.265,"NoResp",0
"1311","tb9555","NoQuestions",1,15,43,"phys","gender",236.279,"NoResp",0
"1312","tb9555","NoQuestions",1,16,58,"phys","ec",252.283,"NoResp",0
"1313","tb9555","NoQuestions",1,17,51,"phys","race",270.299,"NoResp",0
"1314","tb9555","NoQuestions",1,18,32,"bio","place",285.314,"NoResp",0
"1315","tb9555","NoQuestions",2,1,62,"phys","ec",11.06,"NoResp",0
"1316","tb9555","NoQuestions",2,2,9,"bio","job",27.067,"NoResp",0
"1317","tb9555","NoQuestions",2,3,71,"phys","race",44.09,"NoResp",0
"1318","tb9555","NoQuestions",2,4,34,"bio","name",59.098,"NoResp",0
"1319","tb9555","NoQuestions",2,5,17,"bio","job",75.125,"NoResp",0
"1320","tb9555","NoQuestions",2,6,45,"phys","ec",93.142,"NoResp",0
"1321","tb9555","NoQuestions",2,7,56,"phys","race",110.159,"NoResp",0
"1322","tb9555","NoQuestions",2,8,10,"bio","name",126.166,"NoResp",0
"1323","tb9555","NoQuestions",2,9,63,"phys","gender",142.193,"NoResp",0
"1324","tb9555","NoQuestions",2,10,29,"bio","place",157.201,"NoResp",0
"1325","tb9555","NoQuestions",2,11,59,"phys","ec",174.224,"NoResp",0
"1326","tb9555","NoQuestions",2,12,14,"bio","name",189.232,"NoResp",0
"1327","tb9555","NoQuestions",2,13,48,"phys","race",203.247,"NoResp",0
"1328","tb9555","NoQuestions",2,14,55,"phys","gender",221.263,"NoResp",0
"1329","tb9555","NoQuestions",2,15,23,"bio","place",235.278,"NoResp",0
"1330","tb9555","NoQuestions",2,16,33,"bio","place",249.296,"NoResp",0
"1331","tb9555","NoQuestions",2,17,24,"bio","job",264.307,"NoResp",0
"1332","tb9555","NoQuestions",2,18,47,"phys","gender",281.327,"NoResp",0
"1333","tb9555","NoQuestions",3,1,65,"phys","race",11.06,"NoResp",0
"1334","tb9555","NoQuestions",3,2,44,"phys","ec",26.074,"NoResp",0
"1335","tb9555","NoQuestions",3,3,60,"phys","race",43.095,"NoResp",0
"1336","tb9555","NoQuestions",3,4,66,"phys","gender",60.112,"NoResp",0
"1337","tb9555","NoQuestions",3,5,57,"phys","gender",78.128,"NoResp",0
"1338","tb9555","NoQuestions",3,6,36,"bio","name",94.138,"NoResp",0
"1339","tb9555","NoQuestions",3,7,7,"bio","place",112.152,"NoResp",0
"1340","tb9555","NoQuestions",3,8,41,"phys","ec",128.179,"NoResp",0
"1341","tb9555","NoQuestions",3,9,37,"phys","ec",142.194,"NoResp",0
"1342","tb9555","NoQuestions",3,10,64,"phys","race",159.211,"NoResp",0
"1343","tb9555","NoQuestions",3,11,20,"bio","job",175.218,"NoResp",0
"1344","tb9555","NoQuestions",3,12,35,"bio","job",190.229,"NoResp",0
"1345","tb9555","NoQuestions",3,13,39,"phys","gender",204.244,"NoResp",0
"1346","tb9555","NoQuestions",3,14,25,"bio","place",221.264,"NoResp",0
"1347","tb9555","NoQuestions",3,15,18,"bio","place",236.278,"NoResp",0
"1348","tb9555","NoQuestions",3,16,12,"bio","name",250.293,"NoResp",0
"1349","tb9555","NoQuestions",3,17,1,"bio","name",266.313,"NoResp",0
"1350","tb9555","NoQuestions",3,18,11,"bio","job",284.33,"NoResp",0
"1351","tb9555","NoQuestions",4,1,2,"bio","place",11.067,"NoResp",0
"1352","tb9555","NoQuestions",4,2,67,"phys","gender",26.078,"NoResp",0
"1353","tb9555","NoQuestions",4,3,16,"bio","job",40.093,"NoResp",0
"1354","tb9555","NoQuestions",4,4,21,"bio","job",56.1,"NoResp",0
"1355","tb9555","NoQuestions",4,5,4,"bio","place",71.111,"NoResp",0
"1356","tb9555","NoQuestions",4,6,70,"phys","gender",88.131,"NoResp",0
"1357","tb9555","NoQuestions",4,7,8,"bio","name",106.148,"NoResp",0
"1358","tb9555","NoQuestions",4,8,22,"bio","job",123.168,"NoResp",0
"1359","tb9555","NoQuestions",4,9,26,"bio","name",140.191,"NoResp",0
"1360","tb9555","NoQuestions",4,10,72,"phys","race",156.212,"NoResp",0
"1361","tb9555","NoQuestions",4,11,30,"bio","place",171.226,"NoResp",0
"1362","tb9555","NoQuestions",4,12,68,"phys","ec",185.241,"NoResp",0
"1363","tb9555","NoQuestions",4,13,52,"phys","gender",202.261,"NoResp",0
"1364","tb9555","NoQuestions",4,14,31,"bio","name",217.272,"NoResp",0
"1365","tb9555","NoQuestions",4,15,46,"phys","ec",235.289,"NoResp",0
"1366","tb9555","NoQuestions",4,16,42,"phys","race",251.313,"NoResp",0
"1367","tb9555","NoQuestions",4,17,38,"phys","ec",265.327,"NoResp",0
"1368","tb9555","NoQuestions",4,18,40,"phys","race",283.344,"NoResp",0
"1369","tb9555","Questions",1,1,16,"bio","name",11.07,"Yes",1.243
"1370","tb9555","Questions",1,2,67,"phys","gender",27.074,"Yes",1.314
"1371","tb9555","Questions",1,3,27,"bio","name",45.091,"Yes",1.081
"1372","tb9555","Questions",1,4,72,"phys","ec",60.103,"Yes",1.117
"1373","tb9555","Questions",1,5,1,"bio","job",78.122,"Yes",1.108
"1374","tb9555","Questions",1,6,38,"phys","race",93.132,"Yes",1.039
"1375","tb9555","Questions",1,7,28,"bio","name",110.153,"Yes",1.019
"1376","tb9555","Questions",1,8,13,"bio","place",124.167,"Yes",1.088
"1377","tb9555","Questions",1,9,66,"phys","ec",140.188,"Yes",0.836
"1378","tb9555","Questions",1,10,70,"phys","gender",155.202,"Yes",0.972
"1379","tb9555","Questions",1,11,23,"bio","place",171.206,"Yes",0.907
"1380","tb9555","Questions",1,12,52,"phys","race",188.227,"Yes",0.804
"1381","tb9555","Questions",1,13,17,"bio","job",202.241,"Yes",0.885
"1382","tb9555","Questions",1,14,12,"bio","job",219.262,"Yes",0.96
"1383","tb9555","Questions",1,15,31,"bio","place",234.273,"Yes",0.957
"1384","tb9555","Questions",1,16,58,"phys","gender",248.288,"Yes",0.943
"1385","tb9555","Questions",1,17,45,"phys","ec",264.295,"Yes",1
"1386","tb9555","Questions",1,18,37,"phys","race",282.311,"Yes",0.927
"1387","tb9555","Questions",2,1,24,"bio","name",11.07,"Yes",0.898
"1388","tb9555","Questions",2,2,32,"bio","name",28.091,"Yes",0.833
"1389","tb9555","Questions",2,3,55,"phys","race",45.111,"Yes",0.894
"1390","tb9555","Questions",2,4,19,"bio","place",61.121,"Yes",0.879
"1391","tb9555","Questions",2,5,43,"phys","gender",75.136,"Yes",0.953
"1392","tb9555","Questions",2,6,9,"bio","job",91.157,"Yes",0.786
"1393","tb9555","Questions",2,7,51,"phys","ec",105.171,"Yes",0.96
"1394","tb9555","Questions",2,8,18,"bio","job",121.179,"Yes",0.845
"1395","tb9555","Questions",2,9,63,"phys","gender",138.202,"Yes",1.029
"1396","tb9555","Questions",2,10,4,"bio","place",156.219,"Yes",0.986
"1397","tb9555","Questions",2,11,47,"phys","race",170.233,"Yes",0.735
"1398","tb9555","Questions",2,12,33,"bio","job",188.247,"Yes",0.771
"1399","tb9555","Questions",2,13,26,"bio","place",205.27,"Yes",0.873
"1400","tb9555","Questions",2,14,40,"phys","ec",220.278,"Yes",1.104
"1401","tb9555","Questions",2,15,49,"phys","race",238.294,"Yes",0.84
"1402","tb9555","Questions",2,16,64,"phys","gender",253.309,"Yes",1.379
"1403","tb9555","Questions",2,17,68,"phys","ec",268.319,"Yes",0.835
"1404","tb9555","Questions",2,18,36,"bio","name",283.327,"Yes",0.719
"1405","tb9555","Questions",3,1,30,"bio","place",11.059,"Yes",0.862
"1406","tb9555","Questions",3,2,14,"bio","job",25.074,"Yes",0.825
"1407","tb9555","Questions",3,3,29,"bio","job",41.085,"Yes",0.993
"1408","tb9555","Questions",3,4,42,"phys","gender",56.092,"Yes",0.71
"1409","tb9555","Questions",3,5,7,"bio","name",71.107,"Yes",0.839
"1410","tb9555","Questions",3,6,35,"bio","name",85.121,"Yes",0.711
"1411","tb9555","Questions",3,7,3,"bio","name",102.138,"Yes",0.517
"1412","tb9555","Questions",3,8,56,"phys","ec",118.146,"Yes",0.547
"1413","tb9555","Questions",3,9,25,"bio","place",135.169,"Yes",0.612
"1414","tb9555","Questions",3,10,53,"phys","race",153.185,"Yes",0.99
"1415","tb9555","Questions",3,11,21,"bio","job",167.2,"Yes",0.6
"1416","tb9555","Questions",3,12,46,"phys","ec",183.224,"Yes",0.729
"1417","tb9555","Questions",3,13,54,"phys","race",199.228,"Yes",0.602
"1418","tb9555","Questions",3,14,69,"phys","ec",216.251,"Yes",0.69
"1419","tb9555","Questions",3,15,44,"phys","gender",231.259,"Yes",0.85
"1420","tb9555","Questions",3,16,60,"phys","gender",249.276,"Yes",0.695
"1421","tb9555","Questions",3,17,8,"bio","place",264.29,"Yes",0.873
"1422","tb9555","Questions",3,18,50,"phys","race",282.307,"Yes",0.647
"1423","tb9585","NoQuestions",1,1,51,"bio","place",11.076,"NoResp",0
"1424","tb9585","NoQuestions",1,2,33,"phys","ec",27.08,"NoResp",0
"1425","tb9585","NoQuestions",1,3,14,"phys","gender",43.107,"NoResp",0
"1426","tb9585","NoQuestions",1,4,18,"phys","gender",61.121,"NoResp",0
"1427","tb9585","NoQuestions",1,5,25,"phys","race",76.135,"NoResp",0
"1428","tb9585","NoQuestions",1,6,22,"phys","ec",94.151,"NoResp",0
"1429","tb9585","NoQuestions",1,7,7,"phys","race",108.163,"NoResp",0
"1430","tb9585","NoQuestions",1,8,41,"bio","place",125.183,"NoResp",0
"1431","tb9585","NoQuestions",1,9,55,"bio","place",139.198,"NoResp",0
"1432","tb9585","NoQuestions",1,10,63,"bio","job",156.218,"NoResp",0
"1433","tb9585","NoQuestions",1,11,15,"phys","gender",171.229,"NoResp",0
"1434","tb9585","NoQuestions",1,12,68,"bio","name",185.244,"NoResp",0
"1435","tb9585","NoQuestions",1,13,42,"bio","name",202.264,"NoResp",0
"1436","tb9585","NoQuestions",1,14,49,"bio","job",220.281,"NoResp",0
"1437","tb9585","NoQuestions",1,15,17,"phys","race",236.305,"NoResp",0
"1438","tb9585","NoQuestions",1,16,13,"phys","ec",251.316,"NoResp",0
"1439","tb9585","NoQuestions",1,17,39,"bio","job",266.33,"NoResp",0
"1440","tb9585","NoQuestions",1,18,64,"bio","name",283.35,"NoResp",0
"1441","tb9585","NoQuestions",2,1,58,"bio","place",11.073,"NoResp",0
"1442","tb9585","NoQuestions",2,2,16,"phys","race",27.08,"NoResp",0
"1443","tb9585","NoQuestions",2,3,44,"bio","job",43.107,"NoResp",0
"1444","tb9585","NoQuestions",2,4,57,"bio","name",60.127,"NoResp",0
"1445","tb9585","NoQuestions",2,5,6,"phys","gender",75.138,"NoResp",0
"1446","tb9585","NoQuestions",2,6,31,"phys","race",90.146,"NoResp",0
"1447","tb9585","NoQuestions",2,7,52,"bio","job",106.17,"NoResp",0
"1448","tb9585","NoQuestions",2,8,66,"bio","place",120.185,"NoResp",0
"1449","tb9585","NoQuestions",2,9,62,"bio","place",137.205,"NoResp",0
"1450","tb9585","NoQuestions",2,10,4,"phys","ec",155.221,"NoResp",0
"1451","tb9585","NoQuestions",2,11,34,"phys","ec",170.232,"NoResp",0
"1452","tb9585","NoQuestions",2,12,67,"bio","name",188.252,"NoResp",0
"1453","tb9585","NoQuestions",2,13,40,"bio","job",205.272,"NoResp",0
"1454","tb9585","NoQuestions",2,14,2,"phys","ec",219.287,"NoResp",0
"1455","tb9585","NoQuestions",2,15,10,"phys","gender",234.295,"NoResp",0
"1456","tb9585","NoQuestions",2,16,38,"bio","name",252.311,"NoResp",0
"1457","tb9585","NoQuestions",2,17,36,"phys","gender",266.326,"NoResp",0
"1458","tb9585","NoQuestions",2,18,32,"phys","race",283.346,"NoResp",0
"1459","tb9585","NoQuestions",3,1,35,"phys","ec",11.074,"NoResp",0
"1460","tb9585","NoQuestions",3,2,23,"phys","race",27.078,"NoResp",0
"1461","tb9585","NoQuestions",3,3,50,"bio","name",44.099,"NoResp",0
"1462","tb9585","NoQuestions",3,4,12,"phys","ec",58.113,"NoResp",0
"1463","tb9585","NoQuestions",3,5,65,"bio","place",74.14,"NoResp",0
"1464","tb9585","NoQuestions",3,6,19,"phys","ec",92.154,"NoResp",0
"1465","tb9585","NoQuestions",3,7,53,"bio","name",108.181,"NoResp",0
"1466","tb9585","NoQuestions",3,8,27,"phys","gender",125.201,"NoResp",0
"1467","tb9585","NoQuestions",3,9,26,"phys","race",139.216,"NoResp",0
